"participant","trial_num","consistency","matching","key_resp_3.corr","key_resp_3.rt","stage"
"ap01","1","i","match",1,0.8092633,"adapt"
"ap01","2","i","match",1,0.6776223,"adapt"
"ap01","3","c","match",1,0.825733,"adapt"
"ap01","4","c","match",1,0.5265454,"adapt"
"ap01","5","i","mismatch",1,0.6615215,"adapt"
"ap01","6","i","match",1,0.5244704,"adapt"
"ap01","7","c","match",1,1.0297599,"adapt"
"ap01","8","filler","mismatch",1,0.3774555,"adapt"
"ap01","9","c","mismatch",1,0.7983839,"adapt"
"ap01","10","c","match",1,0.6625284,"adapt"
"ap01","11","i","match",1,0.6829048,"adapt"
"ap01","12","c","mismatch",1,0.5426689,"adapt"
"ap01","13","i","mismatch",1,0.7807472,"adapt"
"ap01","14","c","match",1,0.6501064,"adapt"
"ap01","15","i","mismatch",1,0.4717543,"adapt"
"ap01","16","c","match",1,0.4890535,"adapt"
"ap01","17","filler","match",1,0.594461,"adapt"
"ap01","18","i","match",1,0.6306162,"adapt"
"ap01","19","i","match",1,0.5293727,"adapt"
"ap01","20","c","match",1,0.6267208,"adapt"
"ap01","21","filler","match",1,0.748972,"adapt"
"ap01","22","c","mismatch",1,0.686099,"adapt"
"ap01","23","c","mismatch",1,0.5611092,"adapt"
"ap01","24","i","match",1,0.4731448,"adapt"
"ap01","25","c","mismatch",1,0.7241596,"adapt"
"ap01","26","i","mismatch",1,0.7601404,"adapt"
"ap01","27","c","mismatch",1,0.5840936,"adapt"
"ap01","28","i","mismatch",1,0.7001276,"adapt"
"ap01","29","i","match",1,0.6028933,"adapt"
"ap01","30","c","match",1,0.494127,"adapt"
"ap01","31","i","match",1,0.671538,"adapt"
"ap01","32","c","mismatch",1,0.5360312,"adapt"
"ap01","33","i","mismatch",1,0.7587371,"adapt"
"ap01","34","i","mismatch",1,0.7237486,"adapt"
"ap01","35","i","mismatch",1,0.541601,"adapt"
"ap01","36","c","mismatch",1,0.4691202,"adapt"
"ap01","37","i","mismatch",1,0.529197,"adapt"
"ap01","38","i","mismatch",1,0.6510902,"adapt"
"ap01","39","i","mismatch",1,0.5769206,"adapt"
"ap01","40","c","mismatch",1,0.5788561,"adapt"
"ap01","41","c","match",1,0.6614425,"adapt"
"ap01","42","c","match",1,0.5126537,"adapt"
"ap01","43","i","match",1,0.4228168,"adapt"
"ap01","44","c","mismatch",1,0.5326,"adapt"
"ap01","45","c","mismatch",1,0.5667654,"adapt"
"ap01","46","i","match",1,0.7294835,"adapt"
"ap01","47","c","match",1,0.6224529,"adapt"
"ap01","48","i","match",1,0.6093977,"adapt"
"ap01","49","c","match",1,0.4844226,"adapt"
"ap01","50","i","mismatch",1,0.4765611,"adapt"
"ap01","51","c","mismatch",1,0.7434914,"adapt"
"ap01","52","filler","mismatch",1,0.4441032,"adapt"
"ap01","53","c","match",1,0.450276,"adapt"
"ap01","54","c","match",1,0.5530044,"adapt"
"ap01","55","i","mismatch",1,0.4996524,"adapt"
"ap01","56","i","mismatch",1,0.5644687,"adapt"
"ap01","57","i","match",1,1.0610451,"adapt"
"ap01","58","c","match",1,0.4199839,"adapt"
"ap01","59","i","match",1,0.6740238,"adapt"
"ap01","60","i","match",1,0.4506963,"adapt"
"ap01","61","filler","mismatch",1,0.4535476,"adapt"
"ap01","62","c","match",1,0.4862054,"adapt"
"ap01","63","i","match",1,0.4667144,"adapt"
"ap01","64","i","mismatch",1,0.4396623,"adapt"
"ap01","65","filler","match",1,0.6680459,"adapt"
"ap01","66","i","match",1,0.4735291,"adapt"
"ap01","67","c","match",1,0.3729793,"adapt"
"ap01","68","c","match",1,0.6399026,"adapt"
"ap01","69","i","match",1,0.4140208,"adapt"
"ap01","70","i","mismatch",1,0.4649818,"adapt"
"ap01","71","c","match",1,0.3851224,"adapt"
"ap01","72","c","mismatch",1,0.4834582,"adapt"
"ap01","73","i","mismatch",1,0.5168177,"adapt"
"ap01","74","i","mismatch",1,0.5047663,"adapt"
"ap01","75","i","match",1,0.5404934,"adapt"
"ap01","76","c","mismatch",1,0.3901946,"adapt"
"ap01","77","c","mismatch",1,0.6209537,"adapt"
"ap01","78","filler","match",1,0.4330875,"adapt"
"ap01","79","i","match",1,0.474139,"adapt"
"ap01","80","i","mismatch",1,0.4288822,"adapt"
"ap01","81","i","mismatch",1,0.315422,"adapt"
"ap01","82","c","mismatch",1,0.500248,"adapt"
"ap01","83","c","mismatch",1,0.4117949,"adapt"
"ap01","84","i","match",1,0.3979856,"adapt"
"ap01","85","c","mismatch",1,0.4762106,"adapt"
"ap01","86","c","match",1,0.5426618,"adapt"
"ap01","87","i","mismatch",1,0.4556515,"adapt"
"ap01","88","filler","mismatch",1,0.3998819,"adapt"
"ap01","89","c","match",1,0.5816048,"adapt"
"ap01","90","c","mismatch",1,0.4928669,"adapt"
"ap01","91","i","match",1,0.3996955,"adapt"
"ap01","92","i","mismatch",1,0.3773085,"adapt"
"ap01","93","c","match",1,0.4217971,"adapt"
"ap01","94","c","mismatch",1,0.4217427,"adapt"
"ap01","95","i","match",1,0.434402,"adapt"
"ap01","96","i","mismatch",1,0.3886808,"adapt"
"ap01","97","c","mismatch",1,0.5372665,"adapt"
"ap01","98","c","mismatch",1,0.5277675,"adapt"
"ap01","99","c","mismatch",1,0.4352712,"adapt"
"ap01","100","i","mismatch",1,0.3836395,"adapt"
"ap01","101","i","match",1,0.3783726,"adapt"
"ap01","102","c","match",1,0.4930419,"adapt"
"ap01","103","c","mismatch",1,0.5135581,"adapt"
"ap01","104","c","match",1,0.4812216,"adapt"
"ap01","105","i","match",1,1.226761029,"baseline"
"ap01","106","i","match",1,1.023681858,"baseline"
"ap01","107","c","match",1,1.272529104,"baseline"
"ap01","108","c","match",1,1.172550626,"baseline"
"ap01","109","i","mismatch",1,1.276000204,"baseline"
"ap01","110","i","match",1,1.148730188,"baseline"
"ap01","111","c","match",1,1.023055829,"baseline"
"ap01","112","filler","mismatch",1,1.189898574,"baseline"
"ap01","113","c","mismatch",1,1.277532049,"baseline"
"ap01","114","c","match",1,0.887936664,"baseline"
"ap01","115","i","match",1,0.736822801,"baseline"
"ap01","116","c","mismatch",1,0.934379098,"baseline"
"ap01","117","i","mismatch",1,1.723462483,"baseline"
"ap01","118","c","match",1,1.409025683,"baseline"
"ap01","119","i","mismatch",1,1.556035998,"baseline"
"ap01","120","c","match",1,0.752656273,"baseline"
"ap01","121","filler","match",0,1.02041956,"baseline"
"ap01","122","i","match",1,1.039493807,"baseline"
"ap01","123","i","match",1,1.027924733,"baseline"
"ap01","124","c","match",1,0.495656681,"baseline"
"ap01","125","filler","match",1,0.702886219,"baseline"
"ap01","126","c","mismatch",1,1.100978304,"baseline"
"ap01","127","c","mismatch",1,1.514764155,"baseline"
"ap01","128","i","match",1,1.383389082,"baseline"
"ap01","129","c","mismatch",1,0.908744385,"baseline"
"ap01","130","i","mismatch",1,0.486463344,"baseline"
"ap01","131","c","mismatch",1,0.64091049,"baseline"
"ap01","132","i","mismatch",1,0.573723769,"baseline"
"ap01","133","i","match",1,0.62820301,"baseline"
"ap01","134","c","match",1,0.509163122,"baseline"
"ap01","135","i","match",1,0.511359887,"baseline"
"ap01","136","c","mismatch",1,1.362332913,"baseline"
"ap01","137","i","mismatch",1,0.984795947,"baseline"
"ap01","138","i","mismatch",1,0.45972534,"baseline"
"ap01","139","i","mismatch",1,0.444442003,"baseline"
"ap01","140","c","mismatch",1,0.741115517,"baseline"
"ap01","141","i","mismatch",1,0.671136586,"baseline"
"ap01","142","i","mismatch",1,0.685844867,"baseline"
"ap01","143","i","mismatch",1,1.300694741,"baseline"
"ap01","144","c","mismatch",1,0.740196485,"baseline"
"ap01","145","c","match",1,0.791754006,"baseline"
"ap01","146","c","match",1,1.023793244,"baseline"
"ap01","147","i","match",1,0.427414999,"baseline"
"ap01","148","c","mismatch",1,0.580034654,"baseline"
"ap01","149","c","mismatch",1,0.524514801,"baseline"
"ap01","150","i","match",1,0.874842918,"baseline"
"ap01","151","c","match",1,0.476917725,"baseline"
"ap01","152","i","match",1,0.992382678,"baseline"
"ap01","153","c","match",1,1.058863701,"baseline"
"ap01","154","i","mismatch",1,0.546251748,"baseline"
"ap01","155","c","mismatch",1,0.684617729,"baseline"
"ap01","156","filler","mismatch",1,0.992926772,"baseline"
"ap02","1","i","match",1,0.4297791,"adapt"
"ap02","2","i","match",1,0.3954392,"adapt"
"ap02","3","c","match",1,0.387212,"adapt"
"ap02","4","c","match",1,0.4455947,"adapt"
"ap02","5","i","mismatch",1,0.4946638,"adapt"
"ap02","6","i","match",1,0.6031177,"adapt"
"ap02","7","c","match",1,0.4355114,"adapt"
"ap02","8","filler","mismatch",1,0.5701542,"adapt"
"ap02","9","c","mismatch",1,0.486445,"adapt"
"ap02","10","c","match",1,0.6188676,"adapt"
"ap02","11","i","match",1,0.4688797,"adapt"
"ap02","12","c","mismatch",1,0.6356132,"adapt"
"ap02","13","i","mismatch",1,0.4973059,"adapt"
"ap02","14","c","match",1,0.388109,"adapt"
"ap02","15","i","mismatch",1,0.4409311,"adapt"
"ap02","16","c","match",1,0.6329173,"adapt"
"ap02","17","filler","match",1,0.6060686,"adapt"
"ap02","18","i","match",1,0.4607758,"adapt"
"ap02","19","i","match",1,0.6164747,"adapt"
"ap02","20","c","match",1,0.5620241,"adapt"
"ap02","21","filler","match",1,0.5521356,"adapt"
"ap02","22","c","mismatch",1,0.4921878,"adapt"
"ap02","23","c","mismatch",1,0.470013,"adapt"
"ap02","24","i","match",1,0.469194,"adapt"
"ap02","25","c","mismatch",1,0.4324645,"adapt"
"ap02","26","i","mismatch",1,0.4584496,"adapt"
"ap02","27","c","mismatch",1,0.6159344,"adapt"
"ap02","28","i","mismatch",1,0.4490796,"adapt"
"ap02","29","i","match",1,0.519831,"adapt"
"ap02","30","c","match",1,0.6049407,"adapt"
"ap02","31","i","match",1,0.668896,"adapt"
"ap02","32","c","mismatch",1,0.5675338,"adapt"
"ap02","33","i","mismatch",1,0.4472433,"adapt"
"ap02","34","i","mismatch",1,0.3947695,"adapt"
"ap02","35","i","mismatch",1,0.6483112,"adapt"
"ap02","36","c","mismatch",1,0.7707577,"adapt"
"ap02","37","i","mismatch",1,0.4434984,"adapt"
"ap02","38","i","mismatch",1,0.49266,"adapt"
"ap02","39","i","mismatch",1,0.8760541,"adapt"
"ap02","40","c","mismatch",1,0.5577442,"adapt"
"ap02","41","c","match",1,0.3567758,"adapt"
"ap02","42","c","match",1,0.5618421,"adapt"
"ap02","43","i","match",1,0.5578602,"adapt"
"ap02","44","c","mismatch",1,0.4692247,"adapt"
"ap02","45","c","mismatch",1,0.6110318,"adapt"
"ap02","46","i","match",1,0.7087026,"adapt"
"ap02","47","c","match",1,0.574786,"adapt"
"ap02","48","i","match",1,0.638866,"adapt"
"ap02","49","c","match",1,0.3727168,"adapt"
"ap02","50","i","mismatch",1,0.3896715,"adapt"
"ap02","51","c","mismatch",1,0.5124909,"adapt"
"ap02","52","filler","mismatch",1,0.6009917,"adapt"
"ap02","53","c","match",1,0.4049912,"adapt"
"ap02","54","c","match",1,0.3753272,"adapt"
"ap02","55","i","mismatch",1,0.5218737,"adapt"
"ap02","56","i","mismatch",1,0.4718552,"adapt"
"ap02","57","i","match",1,0.6927737,"adapt"
"ap02","58","c","match",1,0.5083494,"adapt"
"ap02","59","i","match",1,0.5777929,"adapt"
"ap02","60","i","match",1,0.3649036,"adapt"
"ap02","61","filler","mismatch",1,0.4197816,"adapt"
"ap02","62","c","match",1,0.3747799,"adapt"
"ap02","63","i","match",1,0.3495282,"adapt"
"ap02","64","i","mismatch",1,0.5592144,"adapt"
"ap02","65","filler","match",0,0.5422506,"adapt"
"ap02","66","i","match",1,0.3985078,"adapt"
"ap02","67","c","match",1,0.5133612,"adapt"
"ap02","68","c","match",1,0.4595801,"adapt"
"ap02","69","i","match",1,0.387049,"adapt"
"ap02","70","i","mismatch",1,0.464343,"adapt"
"ap02","71","c","match",1,0.4993621,"adapt"
"ap02","72","c","mismatch",1,0.5716247,"adapt"
"ap02","73","i","mismatch",1,0.6147088,"adapt"
"ap02","74","i","mismatch",1,0.6508612,"adapt"
"ap02","75","i","match",1,0.410436,"adapt"
"ap02","76","c","mismatch",1,0.4406484,"adapt"
"ap02","77","c","mismatch",1,0.4674239,"adapt"
"ap02","78","filler","match",1,0.7496245,"adapt"
"ap02","79","i","match",1,0.3884563,"adapt"
"ap02","80","i","mismatch",1,0.40672,"adapt"
"ap02","81","i","mismatch",1,0.4527405,"adapt"
"ap02","82","c","mismatch",1,0.4896523,"adapt"
"ap02","83","c","mismatch",1,0.5891456,"adapt"
"ap02","84","i","match",1,0.3763315,"adapt"
"ap02","85","c","mismatch",1,0.6420289,"adapt"
"ap02","86","c","match",1,0.4696636,"adapt"
"ap02","87","i","mismatch",1,0.6411612,"adapt"
"ap02","88","filler","mismatch",1,0.6123804,"adapt"
"ap02","89","c","match",1,0.815593,"adapt"
"ap02","90","c","mismatch",1,0.5857501,"adapt"
"ap02","91","i","match",1,0.3328061,"adapt"
"ap02","92","i","mismatch",1,0.9669485,"adapt"
"ap02","93","c","match",1,0.4860703,"adapt"
"ap02","94","c","mismatch",1,0.4050926,"adapt"
"ap02","95","i","match",1,0.4269369,"adapt"
"ap02","96","i","mismatch",1,0.4094715,"adapt"
"ap02","97","c","mismatch",1,0.4281506,"adapt"
"ap02","98","c","mismatch",1,0.4828793,"adapt"
"ap02","99","c","mismatch",1,0.4460514,"adapt"
"ap02","100","i","mismatch",1,0.4511923,"adapt"
"ap02","101","i","match",1,0.546294,"adapt"
"ap02","102","c","match",1,0.6077776,"adapt"
"ap02","103","c","mismatch",1,0.5221534,"adapt"
"ap02","104","c","match",1,0.4208761,"adapt"
"ap02","105","i","match",1,0.351502,"baseline"
"ap02","106","i","match",1,0.3855482,"baseline"
"ap02","107","c","match",1,0.3820807,"baseline"
"ap02","108","c","match",1,0.6375856,"baseline"
"ap02","109","i","mismatch",1,0.9181375,"baseline"
"ap02","110","i","match",1,0.6033133,"baseline"
"ap02","111","c","match",1,0.4390349,"baseline"
"ap02","112","filler","mismatch",0,0.3553708,"baseline"
"ap02","113","c","mismatch",1,0.390978,"baseline"
"ap02","114","c","match",1,0.6423463,"baseline"
"ap02","115","i","match",1,0.476525,"baseline"
"ap02","116","c","mismatch",1,0.4127499,"baseline"
"ap02","117","i","mismatch",1,0.4274392,"baseline"
"ap02","118","c","match",1,0.4623249,"baseline"
"ap02","119","i","mismatch",1,0.3077629,"baseline"
"ap02","120","c","match",1,0.7052924,"baseline"
"ap02","121","filler","match",1,0.7358455,"baseline"
"ap02","122","i","match",1,0.4242443,"baseline"
"ap02","123","i","match",1,0.3772916,"baseline"
"ap02","124","c","match",1,0.4049984,"baseline"
"ap02","125","filler","match",0,0.35156,"baseline"
"ap02","126","c","mismatch",1,0.3804262,"baseline"
"ap02","127","c","mismatch",1,0.460673,"baseline"
"ap02","128","i","match",1,0.3631446,"baseline"
"ap02","129","c","mismatch",1,0.461658,"baseline"
"ap02","130","i","mismatch",1,0.5333642,"baseline"
"ap02","131","c","mismatch",1,0.4567725,"baseline"
"ap02","132","i","mismatch",1,0.4010062,"baseline"
"ap02","133","i","match",1,0.5542548,"baseline"
"ap02","134","c","match",1,0.428408,"baseline"
"ap02","135","i","match",1,0.6585648,"baseline"
"ap02","136","c","mismatch",1,0.4306674,"baseline"
"ap02","137","i","mismatch",1,0.3882386,"baseline"
"ap02","138","i","mismatch",1,0.3297071,"baseline"
"ap02","139","i","mismatch",1,0.5803508,"baseline"
"ap02","140","c","mismatch",1,0.5383705,"baseline"
"ap02","141","i","mismatch",1,0.3646414,"baseline"
"ap02","142","i","mismatch",1,0.4161756,"baseline"
"ap02","143","i","mismatch",1,0.5311224,"baseline"
"ap02","144","c","mismatch",1,0.5451568,"baseline"
"ap02","145","c","match",1,0.3516087,"baseline"
"ap02","146","c","match",1,0.331841,"baseline"
"ap02","147","i","match",1,0.3204447,"baseline"
"ap02","148","c","mismatch",1,0.3978929,"baseline"
"ap02","149","c","mismatch",1,0.3804838,"baseline"
"ap02","150","i","match",1,0.3360954,"baseline"
"ap02","151","c","match",1,0.3893275,"baseline"
"ap02","152","i","match",1,0.3316969,"baseline"
"ap02","153","c","match",1,0.4283193,"baseline"
"ap02","154","i","mismatch",1,0.458011,"baseline"
"ap02","155","c","mismatch",1,0.4436676,"baseline"
"ap02","156","filler","mismatch",1,0.5915202,"baseline"
"ap02","157","c","match",1,0.3875387,"baseline"
"ap02","158","c","match",1,0.4777687,"baseline"
"ap02","159","i","mismatch",1,0.517859,"baseline"
"ap02","160","i","mismatch",1,0.4513443,"baseline"
"ap02","161","i","match",1,0.4609158,"baseline"
"ap02","162","c","match",1,0.4748411,"baseline"
"ap02","163","i","match",1,0.3520823,"baseline"
"ap02","164","i","match",1,0.4147173,"baseline"
"ap02","165","filler","mismatch",1,0.4431709,"baseline"
"ap02","166","c","match",1,0.4869394,"baseline"
"ap02","167","i","match",1,0.4982411,"baseline"
"ap02","168","i","mismatch",1,0.6253389,"baseline"
"ap02","169","filler","match",1,0.4038925,"baseline"
"ap02","170","i","match",1,0.3492192,"baseline"
"ap02","171","c","match",1,0.4156057,"baseline"
"ap02","172","c","match",1,0.4706425,"baseline"
"ap02","173","i","match",1,0.4215633,"baseline"
"ap02","174","i","mismatch",1,0.3410263,"baseline"
"ap02","175","c","match",1,0.3777823,"baseline"
"ap02","176","c","mismatch",1,0.4315688,"baseline"
"ap02","177","i","mismatch",1,0.4000829,"baseline"
"ap02","178","i","mismatch",1,0.3908076,"baseline"
"ap02","179","i","match",1,0.4537608,"baseline"
"ap02","180","c","mismatch",1,0.6133753,"baseline"
"ap02","181","c","mismatch",1,0.6282889,"baseline"
"ap02","182","filler","match",1,0.389937,"baseline"
"ap02","183","i","match",1,0.4644822,"baseline"
"ap02","184","i","mismatch",1,0.4129036,"baseline"
"ap02","185","i","mismatch",1,0.2950949,"baseline"
"ap02","186","c","mismatch",1,0.3999064,"baseline"
"ap02","187","c","mismatch",1,0.4591279,"baseline"
"ap02","188","i","match",1,0.5705309,"baseline"
"ap02","189","c","mismatch",1,0.7017636,"baseline"
"ap02","190","c","match",1,0.3415972,"baseline"
"ap02","191","i","mismatch",1,0.4236068,"baseline"
"ap02","192","filler","mismatch",1,0.495644,"baseline"
"ap02","193","c","match",1,0.3110384,"baseline"
"ap02","194","c","mismatch",1,0.480868,"baseline"
"ap02","195","i","match",1,0.380983,"baseline"
"ap02","196","i","mismatch",1,0.5799492,"baseline"
"ap02","197","c","match",1,0.8211805,"baseline"
"ap02","198","c","mismatch",1,0.4902125,"baseline"
"ap02","199","i","match",1,0.5970229,"baseline"
"ap02","200","i","mismatch",1,0.4318737,"baseline"
"ap02","201","c","mismatch",1,0.4193675,"baseline"
"ap02","202","c","mismatch",1,0.5121274,"baseline"
"ap02","203","c","mismatch",1,0.5543846,"baseline"
"ap02","204","i","mismatch",1,0.4621994,"baseline"
"ap02","205","i","match",1,0.4041513,"baseline"
"ap02","206","c","match",1,0.3971819,"baseline"
"ap02","207","c","mismatch",1,0.6314693,"baseline"
"ap02","208","c","match",1,0.3945607,"baseline"
"ap03","1","i","match",0,0.8837838,"adapt"
"ap03","2","i","match",1,0.5760861,"adapt"
"ap03","3","c","match",1,1.1767537,"adapt"
"ap03","4","c","match",1,0.7462724,"adapt"
"ap03","5","i","mismatch",1,0.7883706,"adapt"
"ap03","6","i","match",1,0.5937776,"adapt"
"ap03","7","c","match",1,1.0838903,"adapt"
"ap03","8","filler","mismatch",1,0.7658998,"adapt"
"ap03","9","c","mismatch",1,0.6679052,"adapt"
"ap03","10","c","match",1,0.5697921,"adapt"
"ap03","11","i","match",1,0.8187943,"adapt"
"ap03","12","c","mismatch",1,0.6942308,"adapt"
"ap03","13","i","mismatch",0,0.9408466,"adapt"
"ap03","14","c","match",1,0.951014,"adapt"
"ap03","15","i","mismatch",1,0.6843112,"adapt"
"ap03","16","c","match",1,0.8329693,"adapt"
"ap03","17","filler","match",1,0.8825993,"adapt"
"ap03","18","i","match",1,0.9651375,"adapt"
"ap03","19","i","match",1,0.632961,"adapt"
"ap03","20","c","match",1,0.556425,"adapt"
"ap03","21","filler","match",0,0.9172363,"adapt"
"ap03","22","c","mismatch",1,0.7743211,"adapt"
"ap03","23","c","mismatch",1,0.6496933,"adapt"
"ap03","24","i","match",1,0.6522411,"adapt"
"ap03","25","c","mismatch",1,0.9437546,"adapt"
"ap03","26","i","mismatch",1,0.8352513,"adapt"
"ap03","27","c","mismatch",1,0.9286647,"adapt"
"ap03","28","i","mismatch",1,0.7115773,"adapt"
"ap03","29","i","match",1,0.5859724,"adapt"
"ap03","30","c","match",1,0.657159,"adapt"
"ap03","31","i","match",1,0.5693589,"adapt"
"ap03","32","c","mismatch",1,0.5570979,"adapt"
"ap03","33","i","mismatch",1,0.7751507,"adapt"
"ap03","34","i","mismatch",1,1.6349404,"adapt"
"ap03","35","i","mismatch",1,0.9239417,"adapt"
"ap03","36","c","mismatch",1,0.6292189,"adapt"
"ap03","37","i","mismatch",1,0.6012805,"adapt"
"ap03","38","i","mismatch",1,0.6087488,"adapt"
"ap03","39","i","mismatch",1,0.6470964,"adapt"
"ap03","40","c","mismatch",1,0.6918945,"adapt"
"ap03","41","c","match",1,0.6438199,"adapt"
"ap03","42","c","match",1,0.744979,"adapt"
"ap03","43","i","match",1,0.5529738,"adapt"
"ap03","44","c","mismatch",1,0.7335421,"adapt"
"ap03","45","c","mismatch",1,0.6834726,"adapt"
"ap03","46","i","match",1,0.5131917,"adapt"
"ap03","47","c","match",1,0.683698,"adapt"
"ap03","48","i","match",1,0.6127216,"adapt"
"ap03","49","c","match",1,0.5209812,"adapt"
"ap03","50","i","mismatch",1,0.6635401,"adapt"
"ap03","51","c","mismatch",1,0.7303914,"adapt"
"ap03","52","filler","mismatch",1,0.6924402,"adapt"
"ap03","53","c","match",1,0.5666529,"adapt"
"ap03","54","c","match",1,0.7041569,"adapt"
"ap03","55","i","mismatch",1,0.6054454,"adapt"
"ap03","56","i","mismatch",1,0.6438981,"adapt"
"ap03","57","i","match",1,0.9680866,"adapt"
"ap03","58","c","match",1,0.5675954,"adapt"
"ap03","59","i","match",1,0.6514149,"adapt"
"ap03","60","i","match",1,0.6829106,"adapt"
"ap03","61","filler","mismatch",1,0.599869,"adapt"
"ap03","62","c","match",1,0.660172,"adapt"
"ap03","63","i","match",1,1.2689861,"adapt"
"ap03","64","i","mismatch",1,0.5896131,"adapt"
"ap03","65","filler","match",0,0.5211783,"adapt"
"ap03","66","i","match",1,0.6593136,"adapt"
"ap03","67","c","match",1,0.6129068,"adapt"
"ap03","68","c","match",1,0.6639019,"adapt"
"ap03","69","i","match",1,0.5365241,"adapt"
"ap03","70","i","mismatch",1,0.8019622,"adapt"
"ap03","71","c","match",1,0.4893108,"adapt"
"ap03","72","c","mismatch",1,1.0827965,"adapt"
"ap03","73","i","mismatch",1,0.7866961,"adapt"
"ap03","74","i","mismatch",1,0.721568,"adapt"
"ap03","75","i","match",1,0.5102227,"adapt"
"ap03","76","c","mismatch",1,0.572589,"adapt"
"ap03","77","c","mismatch",0,0.4331646,"adapt"
"ap03","78","filler","match",0,0.7540214,"adapt"
"ap03","79","i","match",1,0.6658941,"adapt"
"ap03","80","i","mismatch",1,0.9624964,"adapt"
"ap03","81","i","mismatch",1,0.6957805,"adapt"
"ap03","82","c","mismatch",1,0.6498725,"adapt"
"ap03","83","c","mismatch",1,0.8160921,"adapt"
"ap03","84","i","match",1,0.5971094,"adapt"
"ap03","85","c","mismatch",1,0.9689019,"adapt"
"ap03","86","c","match",1,0.7990326,"adapt"
"ap03","87","i","mismatch",1,0.6462183,"adapt"
"ap03","88","filler","mismatch",1,0.625366,"adapt"
"ap03","89","c","match",1,0.6540022,"adapt"
"ap03","90","c","mismatch",1,0.6101873,"adapt"
"ap03","91","i","match",1,0.6910078,"adapt"
"ap03","92","i","mismatch",1,0.6267014,"adapt"
"ap03","93","c","match",1,0.5184348,"adapt"
"ap03","94","c","mismatch",1,0.654101,"adapt"
"ap03","95","i","match",1,0.6561781,"adapt"
"ap03","96","i","mismatch",1,0.5291918,"adapt"
"ap03","97","c","mismatch",1,0.6701234,"adapt"
"ap03","98","c","mismatch",1,0.7124439,"adapt"
"ap03","99","c","mismatch",1,0.6139063,"adapt"
"ap03","100","i","mismatch",1,0.9391424,"adapt"
"ap03","101","i","match",1,0.645174,"adapt"
"ap03","102","c","match",1,0.6966965,"adapt"
"ap03","103","c","mismatch",1,0.6007644,"adapt"
"ap03","104","c","match",1,0.5108729,"adapt"
"ap03","105","i","match",1,0.65857,"baseline"
"ap03","106","i","match",1,0.8633009,"baseline"
"ap03","107","c","match",1,0.5772827,"baseline"
"ap03","108","c","match",1,0.68097,"baseline"
"ap03","109","i","mismatch",1,0.6450523,"baseline"
"ap03","110","i","match",1,0.6517426,"baseline"
"ap03","111","c","match",1,0.6204133,"baseline"
"ap03","112","filler","mismatch",1,1.6183723,"baseline"
"ap03","113","c","mismatch",1,0.7082741,"baseline"
"ap03","114","c","match",1,0.9148555,"baseline"
"ap03","115","i","match",0,0.5525671,"baseline"
"ap03","116","c","mismatch",1,0.5871123,"baseline"
"ap03","117","i","mismatch",1,0.5989057,"baseline"
"ap03","118","c","match",1,0.8295614,"baseline"
"ap03","119","i","mismatch",1,0.5573415,"baseline"
"ap03","120","c","match",1,0.6642806,"baseline"
"ap03","121","filler","match",1,1.0675008,"baseline"
"ap03","122","i","match",1,0.6784471,"baseline"
"ap03","123","i","match",1,0.984407,"baseline"
"ap03","124","c","match",1,0.6064151,"baseline"
"ap03","125","filler","match",1,0.7840616,"baseline"
"ap03","126","c","mismatch",1,0.6176783,"baseline"
"ap03","127","c","mismatch",1,1.0597057,"baseline"
"ap03","128","i","match",1,0.7928384,"baseline"
"ap03","129","c","mismatch",1,1.0195684,"baseline"
"ap03","130","i","mismatch",1,1.0266843,"baseline"
"ap03","131","c","mismatch",1,0.7350245,"baseline"
"ap03","132","i","mismatch",1,1.0484028,"baseline"
"ap03","133","i","match",1,0.5565719,"baseline"
"ap03","134","c","match",1,0.6058829,"baseline"
"ap03","135","i","match",1,0.8306836,"baseline"
"ap03","136","c","mismatch",1,0.5932473,"baseline"
"ap03","137","i","mismatch",1,0.7053316,"baseline"
"ap03","138","i","mismatch",1,0.858462,"baseline"
"ap03","139","i","mismatch",1,0.6989852,"baseline"
"ap03","140","c","mismatch",1,0.7928765,"baseline"
"ap03","141","i","mismatch",1,1.0335801,"baseline"
"ap03","142","i","mismatch",1,0.8828385,"baseline"
"ap03","143","i","mismatch",1,0.6706081,"baseline"
"ap03","144","c","mismatch",1,0.6801925,"baseline"
"ap03","145","c","match",1,0.7360099,"baseline"
"ap03","146","c","match",1,0.6175508,"baseline"
"ap03","147","i","match",1,0.5686347,"baseline"
"ap03","148","c","mismatch",1,0.6684116,"baseline"
"ap03","149","c","mismatch",1,0.7742285,"baseline"
"ap03","150","i","match",1,0.6110805,"baseline"
"ap03","151","c","match",1,0.6223193,"baseline"
"ap03","152","i","match",1,0.5924716,"baseline"
"ap03","153","c","match",1,0.5113748,"baseline"
"ap03","154","i","mismatch",1,0.869985,"baseline"
"ap03","155","c","mismatch",1,0.7949674,"baseline"
"ap03","156","filler","mismatch",1,0.9723106,"baseline"
"ap03","157","c","match",0,0.4674984,"baseline"
"ap03","158","c","match",1,0.5024037,"baseline"
"ap03","159","i","mismatch",1,0.6297397,"baseline"
"ap03","160","i","mismatch",1,0.6990159,"baseline"
"ap03","161","i","match",1,0.5667772,"baseline"
"ap03","162","c","match",1,0.5322593,"baseline"
"ap03","163","i","match",1,0.5292301,"baseline"
"ap03","164","i","match",1,0.5891788,"baseline"
"ap03","165","filler","mismatch",1,0.7009999,"baseline"
"ap03","166","c","match",1,0.6141406,"baseline"
"ap03","167","i","match",1,0.5733464,"baseline"
"ap03","168","i","mismatch",1,0.5731537,"baseline"
"ap03","169","filler","match",1,0.6073881,"baseline"
"ap03","170","i","match",1,0.5762999,"baseline"
"ap03","171","c","match",1,0.5893402,"baseline"
"ap03","172","c","match",1,0.9030845,"baseline"
"ap03","173","i","match",1,0.5511026,"baseline"
"ap03","174","i","mismatch",1,0.6616751,"baseline"
"ap03","175","c","match",1,0.6167893,"baseline"
"ap03","176","c","mismatch",1,0.8931968,"baseline"
"ap03","177","i","mismatch",1,0.643195,"baseline"
"ap03","178","i","mismatch",1,0.6531495,"baseline"
"ap03","179","i","match",1,1.6118505,"baseline"
"ap03","180","c","mismatch",1,0.9026316,"baseline"
"ap03","181","c","mismatch",1,0.7966243,"baseline"
"ap03","182","filler","match",1,0.5729151,"baseline"
"ap03","183","i","match",1,0.5079739,"baseline"
"ap03","184","i","mismatch",1,1.06994,"baseline"
"ap03","185","i","mismatch",1,0.5699259,"baseline"
"ap03","186","c","mismatch",1,0.5933798,"baseline"
"ap03","187","c","mismatch",1,0.7030586,"baseline"
"ap03","188","i","match",1,1.1693136,"baseline"
"ap03","189","c","mismatch",1,0.6395759,"baseline"
"ap03","190","c","match",1,0.646366,"baseline"
"ap03","191","i","mismatch",1,0.7278974,"baseline"
"ap03","192","filler","mismatch",1,0.7662478,"baseline"
"ap03","193","c","match",1,0.5406736,"baseline"
"ap03","194","c","mismatch",1,0.7693787,"baseline"
"ap03","195","i","match",1,0.5843913,"baseline"
"ap03","196","i","mismatch",1,1.3412982,"baseline"
"ap03","197","c","match",1,0.5040858,"baseline"
"ap03","198","c","mismatch",1,1.2067888,"baseline"
"ap03","199","i","match",1,0.516182,"baseline"
"ap03","200","i","mismatch",1,0.6006016,"baseline"
"ap03","201","c","mismatch",1,0.682713,"baseline"
"ap03","202","c","mismatch",1,0.6025662,"baseline"
"ap03","203","c","mismatch",1,1.1341316,"baseline"
"ap03","204","i","mismatch",1,1.2903106,"baseline"
"ap03","205","i","match",0,1.2657101,"baseline"
"ap03","206","c","match",1,0.6438169,"baseline"
"ap03","207","c","mismatch",1,0.699006,"baseline"
"ap03","208","c","match",1,0.5100709,"baseline"
"ap04","1","i","match",1,0.4769787,"adapt"
"ap04","2","i","match",1,0.8809441,"adapt"
"ap04","3","c","match",1,0.8222621,"adapt"
"ap04","4","c","match",1,0.5462736,"adapt"
"ap04","5","i","mismatch",1,0.6050437,"adapt"
"ap04","6","i","match",1,0.6064473,"adapt"
"ap04","7","c","match",1,0.5822464,"adapt"
"ap04","8","filler","mismatch",1,0.7785167,"adapt"
"ap04","9","c","mismatch",1,0.6332235,"adapt"
"ap04","10","c","match",1,0.5717356,"adapt"
"ap04","11","i","match",1,0.5748573,"adapt"
"ap04","12","c","mismatch",1,0.580495,"adapt"
"ap04","13","i","mismatch",1,0.642969,"adapt"
"ap04","14","c","match",1,0.5572103,"adapt"
"ap04","15","i","mismatch",1,1.2162225,"adapt"
"ap04","16","c","match",1,0.6710335,"adapt"
"ap04","17","filler","match",1,0.8662598,"adapt"
"ap04","18","i","match",1,0.6621469,"adapt"
"ap04","19","i","match",1,0.8128742,"adapt"
"ap04","20","c","match",1,0.5779016,"adapt"
"ap04","21","filler","match",1,0.4713791,"adapt"
"ap04","22","c","mismatch",1,0.6839509,"adapt"
"ap04","23","c","mismatch",1,0.845587,"adapt"
"ap04","24","i","match",1,0.6045948,"adapt"
"ap04","25","c","mismatch",1,0.632596,"adapt"
"ap04","26","i","mismatch",0,0.8016986,"adapt"
"ap04","27","c","mismatch",1,0.6045909,"adapt"
"ap04","28","i","mismatch",1,1.2546309,"adapt"
"ap04","29","i","match",1,0.607189,"adapt"
"ap04","30","c","match",1,0.7037296,"adapt"
"ap04","31","i","match",1,0.4582621,"adapt"
"ap04","32","c","mismatch",1,0.5888616,"adapt"
"ap04","33","i","mismatch",1,0.950125,"adapt"
"ap04","34","i","mismatch",1,0.5030607,"adapt"
"ap04","35","i","mismatch",1,0.7169186,"adapt"
"ap04","36","c","mismatch",1,0.7303984,"adapt"
"ap04","37","i","mismatch",1,0.9315984,"adapt"
"ap04","38","i","mismatch",1,0.9493223,"adapt"
"ap04","39","i","mismatch",1,0.7116233,"adapt"
"ap04","40","c","mismatch",1,0.6665643,"adapt"
"ap04","41","c","match",1,0.6559752,"adapt"
"ap04","42","c","match",1,0.6114591,"adapt"
"ap04","43","i","match",1,0.7199149,"adapt"
"ap04","44","c","mismatch",1,0.6680735,"adapt"
"ap04","45","c","mismatch",1,0.5186136,"adapt"
"ap04","46","i","match",1,0.618042,"adapt"
"ap04","47","c","match",1,0.4860027,"adapt"
"ap04","48","i","match",1,0.6263547,"adapt"
"ap04","49","c","match",1,0.4351269,"adapt"
"ap04","50","i","mismatch",1,0.6205581,"adapt"
"ap04","51","c","mismatch",1,0.5267379,"adapt"
"ap04","52","filler","mismatch",1,0.5140892,"adapt"
"ap04","53","c","match",1,0.4939689,"adapt"
"ap04","54","c","match",1,0.5751001,"adapt"
"ap04","55","i","mismatch",1,0.6872462,"adapt"
"ap04","56","i","mismatch",1,0.7983552,"adapt"
"ap04","57","i","match",1,0.7840808,"adapt"
"ap04","58","c","match",1,0.6679768,"adapt"
"ap04","59","i","match",1,0.6224773,"adapt"
"ap04","60","i","match",1,0.6536748,"adapt"
"ap04","61","filler","mismatch",1,0.6110945,"adapt"
"ap04","62","c","match",1,0.5807681,"adapt"
"ap04","63","i","match",1,0.4516203,"adapt"
"ap04","64","i","mismatch",1,0.51228,"adapt"
"ap04","65","filler","match",1,0.8868129,"adapt"
"ap04","66","i","match",1,0.4876147,"adapt"
"ap04","67","c","match",1,0.609221,"adapt"
"ap04","68","c","match",1,0.5064125,"adapt"
"ap04","69","i","match",1,0.4327562,"adapt"
"ap04","70","i","mismatch",1,0.6884208,"adapt"
"ap04","71","c","match",1,0.8377272,"adapt"
"ap04","72","c","mismatch",1,0.6119076,"adapt"
"ap04","73","i","mismatch",1,0.6645,"adapt"
"ap04","74","i","mismatch",1,0.618973,"adapt"
"ap04","75","i","match",1,0.7943784,"adapt"
"ap04","76","c","mismatch",1,0.6605831,"adapt"
"ap04","77","c","mismatch",1,0.5449245,"adapt"
"ap04","78","filler","match",1,0.676118,"adapt"
"ap04","79","i","match",1,0.48851,"adapt"
"ap04","80","i","mismatch",1,0.5100911,"adapt"
"ap04","81","i","mismatch",1,0.9438827,"adapt"
"ap04","82","c","mismatch",1,0.5540615,"adapt"
"ap04","83","c","mismatch",1,0.5512151,"adapt"
"ap04","84","i","match",1,0.78399,"adapt"
"ap04","85","c","mismatch",1,0.5129756,"adapt"
"ap04","86","c","match",1,0.4757594,"adapt"
"ap04","87","i","mismatch",1,0.583146,"adapt"
"ap04","88","filler","mismatch",1,0.5065198,"adapt"
"ap04","89","c","match",1,0.5429471,"adapt"
"ap04","90","c","mismatch",1,0.5355612,"adapt"
"ap04","91","i","match",1,0.4191577,"adapt"
"ap04","92","i","mismatch",1,0.4946264,"adapt"
"ap04","93","c","match",1,0.5589345,"adapt"
"ap04","94","c","mismatch",1,0.4346473,"adapt"
"ap04","95","i","match",1,0.9393319,"adapt"
"ap04","96","i","mismatch",1,0.6401891,"adapt"
"ap04","97","c","mismatch",1,0.7105098,"adapt"
"ap04","98","c","mismatch",1,0.5760345,"adapt"
"ap04","99","c","mismatch",1,0.5296409,"adapt"
"ap04","100","i","mismatch",1,0.7736017,"adapt"
"ap04","101","i","match",1,0.7231287,"adapt"
"ap04","102","c","match",1,0.553303,"adapt"
"ap04","103","c","mismatch",1,0.8427691,"adapt"
"ap04","104","c","match",1,0.728393,"adapt"
"ap04","105","i","match",1,0.9772363,"baseline"
"ap04","106","i","match",1,0.9017318,"baseline"
"ap04","107","c","match",1,0.9773315,"baseline"
"ap04","108","c","match",1,1.7140198,"baseline"
"ap04","109","i","mismatch",1,0.9536148,"baseline"
"ap04","110","i","match",1,0.7307461,"baseline"
"ap04","111","c","match",1,0.7092619,"baseline"
"ap04","112","filler","mismatch",1,1.0639973,"baseline"
"ap04","113","c","mismatch",1,1.0845518,"baseline"
"ap04","114","c","match",1,0.8253853,"baseline"
"ap04","115","i","match",1,1.0171973,"baseline"
"ap04","116","c","mismatch",1,1.3573384,"baseline"
"ap04","117","i","mismatch",1,1.2476697,"baseline"
"ap04","118","c","match",1,0.7756802,"baseline"
"ap04","119","i","mismatch",1,1.1676947,"baseline"
"ap04","120","c","match",1,1.05981,"baseline"
"ap04","121","filler","match",1,1.1883138,"baseline"
"ap04","122","i","match",1,1.3715619,"baseline"
"ap04","123","i","match",1,0.9539066,"baseline"
"ap04","124","c","match",1,0.667696,"baseline"
"ap04","125","filler","match",1,0.7304719,"baseline"
"ap04","126","c","mismatch",1,0.6521242,"baseline"
"ap04","127","c","mismatch",1,0.5659504,"baseline"
"ap04","128","i","match",1,0.8178435,"baseline"
"ap04","129","c","mismatch",1,1.4233315,"baseline"
"ap04","130","i","mismatch",1,0.9695211,"baseline"
"ap04","131","c","mismatch",1,0.8864706,"baseline"
"ap04","132","i","mismatch",1,0.7325299,"baseline"
"ap04","133","i","match",1,1.2799329,"baseline"
"ap04","134","c","match",1,1.0357234,"baseline"
"ap04","135","i","match",1,1.1812757,"baseline"
"ap04","136","c","mismatch",1,1.1036861,"baseline"
"ap04","137","i","mismatch",1,1.0887674,"baseline"
"ap04","138","i","mismatch",1,0.8318606,"baseline"
"ap04","139","i","mismatch",1,0.7289078,"baseline"
"ap04","140","c","mismatch",1,0.520006,"baseline"
"ap04","141","i","mismatch",1,0.8502416,"baseline"
"ap04","142","i","mismatch",1,0.9051825,"baseline"
"ap04","143","i","mismatch",1,1.3326936,"baseline"
"ap04","144","c","mismatch",1,0.5626983,"baseline"
"ap04","145","c","match",1,1.4259589,"baseline"
"ap04","146","c","match",0,1.2186215,"baseline"
"ap04","147","i","match",1,0.9427159,"baseline"
"ap04","148","c","mismatch",1,0.5793682,"baseline"
"ap04","149","c","mismatch",1,0.6627699,"baseline"
"ap04","150","i","match",1,1.0886941,"baseline"
"ap04","151","c","match",1,0.7574029,"baseline"
"ap04","152","i","match",0,0.6911087,"baseline"
"ap04","153","c","match",1,0.7005994,"baseline"
"ap04","154","i","mismatch",1,1.3421556,"baseline"
"ap04","155","c","mismatch",1,1.3748454,"baseline"
"ap04","156","filler","mismatch",1,0.7521817,"baseline"
"ap05","1","i","match",0,0.7377194,"adapt"
"ap05","2","i","match",1,0.8361213,"adapt"
"ap05","3","c","match",1,0.6458063,"adapt"
"ap05","4","c","match",1,0.8204837,"adapt"
"ap05","5","i","mismatch",1,0.6897914,"adapt"
"ap05","6","i","match",1,0.8113111,"adapt"
"ap05","7","c","match",1,0.5631146,"adapt"
"ap05","8","filler","mismatch",1,0.8412463,"adapt"
"ap05","9","c","mismatch",1,0.9517397,"adapt"
"ap05","10","c","match",1,0.8272649,"adapt"
"ap05","11","i","match",1,0.7433195,"adapt"
"ap05","12","c","mismatch",1,0.7417272,"adapt"
"ap05","13","i","mismatch",1,1.570449,"adapt"
"ap05","14","c","match",1,0.5317457,"adapt"
"ap05","15","i","mismatch",1,0.809846,"adapt"
"ap05","16","c","match",1,0.9759829,"adapt"
"ap05","17","filler","match",1,0.8901445,"adapt"
"ap05","18","i","match",1,0.6479552,"adapt"
"ap05","19","i","match",1,0.5659472,"adapt"
"ap05","20","c","match",1,0.9929134,"adapt"
"ap05","21","filler","match",1,0.6661178,"adapt"
"ap05","22","c","mismatch",1,0.9454033,"adapt"
"ap05","23","c","mismatch",1,0.8915243,"adapt"
"ap05","24","i","match",1,0.6141545,"adapt"
"ap05","25","c","mismatch",1,0.8706201,"adapt"
"ap05","26","i","mismatch",1,1.6864721,"adapt"
"ap05","27","c","mismatch",1,0.7698282,"adapt"
"ap05","28","i","mismatch",1,0.6871709,"adapt"
"ap05","29","i","match",1,1.9285774,"adapt"
"ap05","30","c","match",1,0.9410889,"adapt"
"ap05","31","i","match",1,0.6307952,"adapt"
"ap05","32","c","mismatch",1,0.6475671,"adapt"
"ap05","33","i","mismatch",1,1.415451,"adapt"
"ap05","34","i","mismatch",1,0.6835825,"adapt"
"ap05","35","i","mismatch",1,1.2071928,"adapt"
"ap05","36","c","mismatch",1,0.8509732,"adapt"
"ap05","37","i","mismatch",0,NA,"adapt"
"ap05","38","i","mismatch",1,1.1610226,"adapt"
"ap05","39","i","mismatch",1,1.1953486,"adapt"
"ap05","40","c","mismatch",1,1.1224667,"adapt"
"ap05","41","c","match",1,1.0687957,"adapt"
"ap05","42","c","match",1,0.7317199,"adapt"
"ap05","43","i","match",1,0.7030923,"adapt"
"ap05","44","c","mismatch",1,0.5921544,"adapt"
"ap05","45","c","mismatch",1,1.2490674,"adapt"
"ap05","46","i","match",1,0.8049679,"adapt"
"ap05","47","c","match",1,0.6512236,"adapt"
"ap05","48","i","match",1,0.6185543,"adapt"
"ap05","49","c","match",1,0.6780246,"adapt"
"ap05","50","i","mismatch",1,0.6676126,"adapt"
"ap05","51","c","mismatch",1,0.5473511,"adapt"
"ap05","52","filler","mismatch",1,0.8102935,"adapt"
"ap05","53","c","match",1,0.7962299,"adapt"
"ap05","54","c","match",1,0.4275187,"adapt"
"ap05","55","i","mismatch",1,1.100815,"adapt"
"ap05","56","i","mismatch",1,1.5331396,"adapt"
"ap05","57","i","match",1,0.8221784,"adapt"
"ap05","58","c","match",1,0.6516099,"adapt"
"ap05","59","i","match",1,0.8213644,"adapt"
"ap05","60","i","match",1,0.655232,"adapt"
"ap05","61","filler","mismatch",0,0.7885685,"adapt"
"ap05","62","c","match",1,0.8301667,"adapt"
"ap05","63","i","match",1,0.4091921,"adapt"
"ap05","64","i","mismatch",1,0.734669,"adapt"
"ap05","65","filler","match",1,0.8815245,"adapt"
"ap05","66","i","match",1,0.5958867,"adapt"
"ap05","67","c","match",1,0.7102174,"adapt"
"ap05","68","c","match",1,0.6064175,"adapt"
"ap05","69","i","match",1,0.6429334,"adapt"
"ap05","70","i","mismatch",1,1.2015033,"adapt"
"ap05","71","c","match",1,0.5988418,"adapt"
"ap05","72","c","mismatch",1,0.7324118,"adapt"
"ap05","73","i","mismatch",1,0.6026703,"adapt"
"ap05","74","i","mismatch",1,0.7267875,"adapt"
"ap05","75","i","match",1,0.6795378,"adapt"
"ap05","76","c","mismatch",1,1.8056606,"adapt"
"ap05","77","c","mismatch",1,0.6306332,"adapt"
"ap05","78","filler","match",1,0.8171975,"adapt"
"ap05","79","i","match",1,0.6428184,"adapt"
"ap05","80","i","mismatch",1,0.7464439,"adapt"
"ap05","81","i","mismatch",1,1.241809,"adapt"
"ap05","82","c","mismatch",1,0.6843576,"adapt"
"ap05","83","c","mismatch",1,0.877764,"adapt"
"ap05","84","i","match",1,0.4497236,"adapt"
"ap05","85","c","mismatch",1,0.6476129,"adapt"
"ap05","86","c","match",1,1.0656826,"adapt"
"ap05","87","i","mismatch",1,1.2991609,"adapt"
"ap05","88","filler","mismatch",1,0.9485985,"adapt"
"ap05","89","c","match",1,1.4804674,"adapt"
"ap05","90","c","mismatch",1,0.6277203,"adapt"
"ap05","91","i","match",1,0.4991966,"adapt"
"ap05","92","i","mismatch",1,0.8957431,"adapt"
"ap05","93","c","match",1,0.6606496,"adapt"
"ap05","94","c","mismatch",1,1.06757,"adapt"
"ap05","95","i","match",1,0.5033934,"adapt"
"ap05","96","i","mismatch",1,0.7180374,"adapt"
"ap05","97","c","mismatch",1,0.7550613,"adapt"
"ap05","98","c","mismatch",0,0.0968172,"adapt"
"ap05","99","c","mismatch",1,1.2660587,"adapt"
"ap05","100","i","mismatch",0,NA,"adapt"
"ap05","101","i","match",1,0.7829106,"adapt"
"ap05","102","c","match",1,0.6742005,"adapt"
"ap05","103","c","mismatch",1,1.5732526,"adapt"
"ap05","104","c","match",1,1.7685031,"adapt"
"ap05","105","i","match",1,0.964304531,"baseline"
"ap05","106","i","match",1,0.631117951,"baseline"
"ap05","107","c","match",1,1.320631192,"baseline"
"ap05","108","c","match",1,0.757722531,"baseline"
"ap05","109","i","mismatch",1,0.901418714,"baseline"
"ap05","110","i","match",0,0.764973983,"baseline"
"ap05","111","c","match",1,0.96788778,"baseline"
"ap05","112","filler","mismatch",1,1.048126487,"baseline"
"ap05","113","c","mismatch",0,0.85413192,"baseline"
"ap05","114","c","match",1,0.952897417,"baseline"
"ap05","115","i","match",1,0.914601971,"baseline"
"ap05","116","c","mismatch",1,0.678645265,"baseline"
"ap05","117","i","mismatch",1,0.467372947,"baseline"
"ap05","118","c","match",1,0.473213755,"baseline"
"ap05","119","i","mismatch",1,0.930687697,"baseline"
"ap05","120","c","match",1,0.577950704,"baseline"
"ap05","121","filler","match",1,0.62955703,"baseline"
"ap05","122","i","match",1,0.54307388,"baseline"
"ap05","123","i","match",1,0.867503591,"baseline"
"ap05","124","c","match",1,0.706027474,"baseline"
"ap05","125","filler","match",1,0.693992819,"baseline"
"ap05","126","c","mismatch",1,0.478106078,"baseline"
"ap05","127","c","mismatch",1,0.443615898,"baseline"
"ap05","128","i","match",1,0.698363325,"baseline"
"ap05","129","c","mismatch",1,0.684635972,"baseline"
"ap05","130","i","mismatch",1,0.438416979,"baseline"
"ap05","131","c","mismatch",1,0.642194682,"baseline"
"ap05","132","i","mismatch",1,0.653507023,"baseline"
"ap05","133","i","match",1,0.878298267,"baseline"
"ap05","134","c","match",1,0.731109833,"baseline"
"ap05","135","i","match",1,0.650442949,"baseline"
"ap05","136","c","mismatch",1,0.725025863,"baseline"
"ap05","137","i","mismatch",1,0.472386852,"baseline"
"ap05","138","i","mismatch",1,0.957829764,"baseline"
"ap05","139","i","mismatch",1,0.605996323,"baseline"
"ap05","140","c","mismatch",1,0.527941925,"baseline"
"ap05","141","i","mismatch",1,0.558709907,"baseline"
"ap05","142","i","mismatch",1,0.856327556,"baseline"
"ap05","143","i","mismatch",1,0.792569526,"baseline"
"ap05","144","c","mismatch",1,0.670614107,"baseline"
"ap05","145","c","match",1,0.481596819,"baseline"
"ap05","146","c","match",1,0.657251121,"baseline"
"ap05","147","i","match",1,0.587855421,"baseline"
"ap05","148","c","mismatch",1,0.671246178,"baseline"
"ap05","149","c","mismatch",1,0.470681694,"baseline"
"ap05","150","i","match",1,0.774547562,"baseline"
"ap05","151","c","match",1,0.609379453,"baseline"
"ap05","152","i","match",1,0.498738641,"baseline"
"ap05","153","c","match",1,0.468178706,"baseline"
"ap05","154","i","mismatch",1,0.828353677,"baseline"
"ap05","155","c","mismatch",1,0.471219747,"baseline"
"ap05","156","filler","mismatch",1,0.667605538,"baseline"
"ap06","1","i","match",0,1.1343489,"adapt"
"ap06","2","i","match",1,0.8117594,"adapt"
"ap06","3","c","match",1,0.77157,"adapt"
"ap06","4","c","match",1,0.5318018,"adapt"
"ap06","5","i","mismatch",1,1.3692486,"adapt"
"ap06","6","i","match",1,0.923672,"adapt"
"ap06","7","c","match",1,0.6108979,"adapt"
"ap06","8","filler","mismatch",1,0.8368142,"adapt"
"ap06","9","c","mismatch",1,0.6750312,"adapt"
"ap06","10","c","match",1,0.634116,"adapt"
"ap06","11","i","match",1,0.6349401,"adapt"
"ap06","12","c","mismatch",1,0.6169324,"adapt"
"ap06","13","i","mismatch",1,0.7034603,"adapt"
"ap06","14","c","match",1,0.471886,"adapt"
"ap06","15","i","mismatch",1,0.6594247,"adapt"
"ap06","16","c","match",1,0.6826943,"adapt"
"ap06","17","filler","match",1,0.793468,"adapt"
"ap06","18","i","match",1,0.5995579,"adapt"
"ap06","19","i","match",1,0.440135,"adapt"
"ap06","20","c","match",1,0.6359275,"adapt"
"ap06","21","filler","match",1,0.6145915,"adapt"
"ap06","22","c","mismatch",1,0.6502389,"adapt"
"ap06","23","c","mismatch",1,0.8462133,"adapt"
"ap06","24","i","match",1,0.6272477,"adapt"
"ap06","25","c","mismatch",1,0.8187051,"adapt"
"ap06","26","i","mismatch",1,1.2937792,"adapt"
"ap06","27","c","mismatch",1,0.63582,"adapt"
"ap06","28","i","mismatch",1,1.120437,"adapt"
"ap06","29","i","match",1,0.7561637,"adapt"
"ap06","30","c","match",1,0.5510852,"adapt"
"ap06","31","i","match",1,0.4628328,"adapt"
"ap06","32","c","mismatch",1,0.7509683,"adapt"
"ap06","33","i","mismatch",1,0.6739187,"adapt"
"ap06","34","i","mismatch",1,0.8567199,"adapt"
"ap06","35","i","mismatch",1,0.4751482,"adapt"
"ap06","36","c","mismatch",1,0.6786189,"adapt"
"ap06","37","i","mismatch",1,0.7413655,"adapt"
"ap06","38","i","mismatch",1,0.6079391,"adapt"
"ap06","39","i","mismatch",1,0.4848095,"adapt"
"ap06","40","c","mismatch",1,0.6464647,"adapt"
"ap06","41","c","match",1,0.8426385,"adapt"
"ap06","42","c","match",1,0.7623026,"adapt"
"ap06","43","i","match",1,0.8711859,"adapt"
"ap06","44","c","mismatch",1,0.6300648,"adapt"
"ap06","45","c","mismatch",1,0.7675053,"adapt"
"ap06","46","i","match",1,0.6359045,"adapt"
"ap06","47","c","match",1,0.8934761,"adapt"
"ap06","48","i","match",1,0.645893,"adapt"
"ap06","49","c","match",1,0.4280003,"adapt"
"ap06","50","i","mismatch",1,0.4845112,"adapt"
"ap06","51","c","mismatch",1,0.5335401,"adapt"
"ap06","52","filler","mismatch",1,0.6478279,"adapt"
"ap06","53","c","match",1,0.6093531,"adapt"
"ap06","54","c","match",1,0.4619481,"adapt"
"ap06","55","i","mismatch",1,0.5170718,"adapt"
"ap06","56","i","mismatch",1,0.448407,"adapt"
"ap06","57","i","match",1,0.5954736,"adapt"
"ap06","58","c","match",1,0.6657271,"adapt"
"ap06","59","i","match",0,0.7051974,"adapt"
"ap06","60","i","match",1,0.6567899,"adapt"
"ap06","61","filler","mismatch",1,0.6735765,"adapt"
"ap06","62","c","match",1,0.4082882,"adapt"
"ap06","63","i","match",1,0.5557096,"adapt"
"ap06","64","i","mismatch",1,0.6753309,"adapt"
"ap06","65","filler","match",1,0.5964738,"adapt"
"ap06","66","i","match",1,0.7770197,"adapt"
"ap06","67","c","match",1,0.5716963,"adapt"
"ap06","68","c","match",1,0.5669368,"adapt"
"ap06","69","i","match",1,0.5315557,"adapt"
"ap06","70","i","mismatch",1,0.5544694,"adapt"
"ap06","71","c","match",1,0.6494016,"adapt"
"ap06","72","c","mismatch",1,0.6298379,"adapt"
"ap06","73","i","mismatch",1,0.6524102,"adapt"
"ap06","74","i","mismatch",1,0.5815804,"adapt"
"ap06","75","i","match",1,0.5620295,"adapt"
"ap06","76","c","mismatch",1,0.7600516,"adapt"
"ap06","77","c","mismatch",1,0.6721792,"adapt"
"ap06","78","filler","match",1,0.5576015,"adapt"
"ap06","79","i","match",1,0.743901,"adapt"
"ap06","80","i","mismatch",1,0.4777494,"adapt"
"ap06","81","i","mismatch",1,0.6817443,"adapt"
"ap06","82","c","mismatch",1,0.5480584,"adapt"
"ap06","83","c","mismatch",1,0.6133824,"adapt"
"ap06","84","i","match",0,1.0890416,"adapt"
"ap06","85","c","mismatch",1,0.6303558,"adapt"
"ap06","86","c","match",1,0.5932246,"adapt"
"ap06","87","i","mismatch",1,0.5735549,"adapt"
"ap06","88","filler","mismatch",1,0.5613056,"adapt"
"ap06","89","c","match",1,0.516514,"adapt"
"ap06","90","c","mismatch",1,1.019581,"adapt"
"ap06","91","i","match",1,0.6975608,"adapt"
"ap06","92","i","mismatch",1,0.6501003,"adapt"
"ap06","93","c","match",1,0.64191,"adapt"
"ap06","94","c","mismatch",1,0.6907732,"adapt"
"ap06","95","i","match",1,0.5368789,"adapt"
"ap06","96","i","mismatch",1,0.5511107,"adapt"
"ap06","97","c","mismatch",1,0.6375788,"adapt"
"ap06","98","c","mismatch",1,0.7135629,"adapt"
"ap06","99","c","mismatch",1,0.8232079,"adapt"
"ap06","100","i","mismatch",1,0.587339,"adapt"
"ap06","101","i","match",1,0.4918794,"adapt"
"ap06","102","c","match",1,0.4993123,"adapt"
"ap06","103","c","mismatch",1,0.4898431,"adapt"
"ap06","104","c","match",1,0.456517,"adapt"
"ap06","105","i","match",1,0.885231932,"baseline"
"ap06","106","i","match",1,0.561263494,"baseline"
"ap06","107","c","match",1,0.402371287,"baseline"
"ap06","108","c","match",1,0.848387937,"baseline"
"ap06","109","i","mismatch",1,0.736180624,"baseline"
"ap06","110","i","match",1,1.241967622,"baseline"
"ap06","111","c","match",1,0.598002521,"baseline"
"ap06","112","filler","mismatch",1,0.600131702,"baseline"
"ap06","113","c","mismatch",1,0.553785498,"baseline"
"ap06","114","c","match",1,0.598471855,"baseline"
"ap06","115","i","match",1,0.569260663,"baseline"
"ap06","116","c","mismatch",1,0.56680563,"baseline"
"ap06","117","i","mismatch",1,0.71343249,"baseline"
"ap06","118","c","match",1,0.494657794,"baseline"
"ap06","119","i","mismatch",1,0.458474188,"baseline"
"ap06","120","c","match",1,0.55480308,"baseline"
"ap06","121","filler","match",1,0.727727336,"baseline"
"ap06","122","i","match",1,0.503759388,"baseline"
"ap06","123","i","match",1,0.46528613,"baseline"
"ap06","124","c","match",1,0.41280461,"baseline"
"ap06","125","filler","match",1,0.671268753,"baseline"
"ap06","126","c","mismatch",1,0.514573314,"baseline"
"ap06","127","c","mismatch",1,0.689975258,"baseline"
"ap06","128","i","match",1,0.704682423,"baseline"
"ap06","129","c","mismatch",1,0.540314912,"baseline"
"ap06","130","i","mismatch",1,0.463287216,"baseline"
"ap06","131","c","mismatch",0,0.549201663,"baseline"
"ap06","132","i","mismatch",1,0.717571535,"baseline"
"ap06","133","i","match",1,0.577725279,"baseline"
"ap06","134","c","match",1,0.479010074,"baseline"
"ap06","135","i","match",1,0.470244149,"baseline"
"ap06","136","c","mismatch",1,0.726653495,"baseline"
"ap06","137","i","mismatch",1,0.822789065,"baseline"
"ap06","138","i","mismatch",1,0.524794814,"baseline"
"ap06","139","i","mismatch",1,0.822241572,"baseline"
"ap06","140","c","mismatch",1,0.495303458,"baseline"
"ap06","141","i","mismatch",1,0.524540702,"baseline"
"ap06","142","i","mismatch",1,0.570384345,"baseline"
"ap06","143","i","mismatch",1,1.164553661,"baseline"
"ap06","144","c","mismatch",1,0.658077954,"baseline"
"ap06","145","c","match",1,0.629893029,"baseline"
"ap06","146","c","match",1,0.53950349,"baseline"
"ap06","147","i","match",1,0.508923189,"baseline"
"ap06","148","c","mismatch",1,0.669961945,"baseline"
"ap06","149","c","mismatch",1,0.422138417,"baseline"
"ap06","150","i","match",1,0.753608639,"baseline"
"ap06","151","c","match",1,0.596530332,"baseline"
"ap06","152","i","match",1,0.483581072,"baseline"
"ap06","153","c","match",1,0.436243718,"baseline"
"ap06","154","i","mismatch",1,0.601077165,"baseline"
"ap06","155","c","mismatch",1,0.788110121,"baseline"
"ap06","156","filler","mismatch",1,0.493087434,"baseline"
"ap07","1","i","match",0,0.9090638,"adapt"
"ap07","2","i","match",0,0.8385366,"adapt"
"ap07","3","c","match",0,1.7632913,"adapt"
"ap07","4","c","match",1,0.7215037,"adapt"
"ap07","5","i","mismatch",1,0.8611989,"adapt"
"ap07","6","i","match",1,0.9674884,"adapt"
"ap07","7","c","match",1,0.9385154,"adapt"
"ap07","8","filler","mismatch",1,0.9577508,"adapt"
"ap07","9","c","mismatch",1,0.6139528,"adapt"
"ap07","10","c","match",1,0.9580932,"adapt"
"ap07","11","i","match",1,0.8970951,"adapt"
"ap07","12","c","mismatch",1,1.6680116,"adapt"
"ap07","13","i","mismatch",1,1.0729015,"adapt"
"ap07","14","c","match",1,0.7645596,"adapt"
"ap07","15","i","mismatch",1,0.6999235,"adapt"
"ap07","16","c","match",1,0.9217682,"adapt"
"ap07","17","filler","match",1,0.7354426,"adapt"
"ap07","18","i","match",1,0.8670441,"adapt"
"ap07","19","i","match",1,0.915109,"adapt"
"ap07","20","c","match",1,1.61596,"adapt"
"ap07","21","filler","match",1,0.8827298,"adapt"
"ap07","22","c","mismatch",1,1.1573536,"adapt"
"ap07","23","c","mismatch",1,1.1801205,"adapt"
"ap07","24","i","match",1,0.9330535,"adapt"
"ap07","25","c","mismatch",1,0.7731779,"adapt"
"ap07","26","i","mismatch",1,0.7293655,"adapt"
"ap07","27","c","mismatch",1,0.8483881,"adapt"
"ap07","28","i","mismatch",1,1.1670431,"adapt"
"ap07","29","i","match",1,0.6804721,"adapt"
"ap07","30","c","match",1,1.5884511,"adapt"
"ap07","31","i","match",1,1.5249679,"adapt"
"ap07","32","c","mismatch",1,0.6693284,"adapt"
"ap07","33","i","mismatch",0,1.2070275,"adapt"
"ap07","34","i","mismatch",1,0.9725727,"adapt"
"ap07","35","i","mismatch",1,1.2459034,"adapt"
"ap07","36","c","mismatch",1,0.1844953,"adapt"
"ap07","37","i","mismatch",1,0.9005686,"adapt"
"ap07","38","i","mismatch",1,0.895385,"adapt"
"ap07","39","i","mismatch",1,0.9763307,"adapt"
"ap07","40","c","mismatch",1,1.0105529,"adapt"
"ap07","41","c","match",1,1.119361,"adapt"
"ap07","42","c","match",1,1.3196485,"adapt"
"ap07","43","i","match",1,0.7487897,"adapt"
"ap07","44","c","mismatch",1,0.9663892,"adapt"
"ap07","45","c","mismatch",1,0.978728,"adapt"
"ap07","46","i","match",1,1.0048704,"adapt"
"ap07","47","c","match",1,0.9052521,"adapt"
"ap07","48","i","match",1,1.0494559,"adapt"
"ap07","49","c","match",1,0.9430945,"adapt"
"ap07","50","i","mismatch",1,1.3697438,"adapt"
"ap07","51","c","mismatch",1,0.8933622,"adapt"
"ap07","52","filler","mismatch",1,1.2249161,"adapt"
"ap07","53","c","match",1,0.9218979,"adapt"
"ap07","54","c","match",1,0.8431457,"adapt"
"ap07","55","i","mismatch",1,1.6895624,"adapt"
"ap07","56","i","mismatch",1,1.4033531,"adapt"
"ap07","57","i","match",1,0.706632,"adapt"
"ap07","58","c","match",1,0.8800112,"adapt"
"ap07","59","i","match",1,1.0891177,"adapt"
"ap07","60","i","match",1,1.0031154,"adapt"
"ap07","61","filler","mismatch",1,0.7967765,"adapt"
"ap07","62","c","match",1,0.8386198,"adapt"
"ap07","63","i","match",1,1.0304061,"adapt"
"ap07","64","i","mismatch",1,1.2654713,"adapt"
"ap07","65","filler","match",1,1.0297739,"adapt"
"ap07","66","i","match",1,0.8998591,"adapt"
"ap07","67","c","match",1,1.1527666,"adapt"
"ap07","68","c","match",1,1.0197251,"adapt"
"ap07","69","i","match",1,0.9902845,"adapt"
"ap07","70","i","mismatch",1,1.4340414,"adapt"
"ap07","71","c","match",1,1.9593695,"adapt"
"ap07","72","c","mismatch",1,0.7270055,"adapt"
"ap07","73","i","mismatch",1,1.0114189,"adapt"
"ap07","74","i","mismatch",1,0.865932,"adapt"
"ap07","75","i","match",1,0.8114644,"adapt"
"ap07","76","c","mismatch",1,0.898341,"adapt"
"ap07","77","c","mismatch",1,1.2972522,"adapt"
"ap07","78","filler","match",1,1.2425179,"adapt"
"ap07","79","i","match",1,1.2695442,"adapt"
"ap07","80","i","mismatch",1,0.6305304,"adapt"
"ap07","81","i","mismatch",1,0.9723088,"adapt"
"ap07","82","c","mismatch",1,0.9672472,"adapt"
"ap07","83","c","mismatch",1,0.8077098,"adapt"
"ap07","84","i","match",1,1.1086356,"adapt"
"ap07","85","c","mismatch",1,0.9017646,"adapt"
"ap07","86","c","match",1,0.8983553,"adapt"
"ap07","87","i","mismatch",1,1.299169,"adapt"
"ap07","88","filler","mismatch",1,1.4988846,"adapt"
"ap07","89","c","match",1,0.7920633,"adapt"
"ap07","90","c","mismatch",1,0.7519526,"adapt"
"ap07","91","i","match",1,0.8838098,"adapt"
"ap07","92","i","mismatch",1,1.1850436,"adapt"
"ap07","93","c","match",0,1.5325494,"adapt"
"ap07","94","c","mismatch",1,0.6552515,"adapt"
"ap07","95","i","match",0,0.850955,"adapt"
"ap07","96","i","mismatch",1,1.1378342,"adapt"
"ap07","97","c","mismatch",1,0.990343,"adapt"
"ap07","98","c","mismatch",1,0.7634705,"adapt"
"ap07","99","c","mismatch",1,0.9768914,"adapt"
"ap07","100","i","mismatch",1,1.2424997,"adapt"
"ap07","101","i","match",1,1.2830106,"adapt"
"ap07","102","c","match",0,NA,"adapt"
"ap07","103","c","mismatch",1,0.5968697,"adapt"
"ap07","104","c","match",0,1.22881,"adapt"
"ap07","105","i","match",1,0.648754428,"baseline"
"ap07","106","i","match",1,1.146361883,"baseline"
"ap07","107","c","match",1,0.651747517,"baseline"
"ap07","108","c","match",1,0.698304446,"baseline"
"ap07","109","i","mismatch",1,0.601175386,"baseline"
"ap07","110","i","match",1,0.43204305,"baseline"
"ap07","111","c","match",1,1.102894326,"baseline"
"ap07","112","filler","mismatch",1,0.783880644,"baseline"
"ap07","113","c","mismatch",1,0.565878315,"baseline"
"ap07","114","c","match",1,0.648571679,"baseline"
"ap07","115","i","match",1,1.551949712,"baseline"
"ap07","116","c","mismatch",1,1.108669057,"baseline"
"ap07","117","i","mismatch",1,0.427673299,"baseline"
"ap07","118","c","match",1,0.559050131,"baseline"
"ap07","119","i","mismatch",1,1.038342619,"baseline"
"ap07","120","c","match",1,1.048832965,"baseline"
"ap07","121","filler","match",1,0.788354985,"baseline"
"ap07","122","i","match",1,0.806167769,"baseline"
"ap07","123","i","match",1,1.08464317,"baseline"
"ap07","124","c","match",1,0.615117205,"baseline"
"ap07","125","filler","match",1,0.771624727,"baseline"
"ap07","126","c","mismatch",1,0.47489666,"baseline"
"ap07","127","c","mismatch",1,0.698547608,"baseline"
"ap07","128","i","match",1,1.058390685,"baseline"
"ap07","129","c","mismatch",1,0.848319832,"baseline"
"ap07","130","i","mismatch",0,1.611883975,"baseline"
"ap07","131","c","mismatch",1,0.799543479,"baseline"
"ap07","132","i","mismatch",0,NA,"baseline"
"ap07","133","i","match",1,0.784493082,"baseline"
"ap07","134","c","match",1,0.914622762,"baseline"
"ap07","135","i","match",1,0.824171986,"baseline"
"ap07","136","c","mismatch",1,0.718007025,"baseline"
"ap07","137","i","mismatch",0,0.93185105,"baseline"
"ap07","138","i","mismatch",1,1.183621624,"baseline"
"ap07","139","i","mismatch",0,0.513383917,"baseline"
"ap07","140","c","mismatch",1,0.651150561,"baseline"
"ap07","141","i","mismatch",1,0.790378067,"baseline"
"ap07","142","i","mismatch",1,1.081649327,"baseline"
"ap07","143","i","mismatch",1,0.494161999,"baseline"
"ap07","144","c","mismatch",1,0.71932856,"baseline"
"ap07","145","c","match",1,0.654859921,"baseline"
"ap07","146","c","match",1,0.657125032,"baseline"
"ap07","147","i","match",1,1.107175723,"baseline"
"ap07","148","c","mismatch",1,0.626967977,"baseline"
"ap07","149","c","mismatch",1,0.593532382,"baseline"
"ap07","150","i","match",1,1.137216482,"baseline"
"ap07","151","c","match",1,0.691217619,"baseline"
"ap07","152","i","match",0,1.050292318,"baseline"
"ap07","153","c","match",1,0.765211128,"baseline"
"ap07","154","i","mismatch",1,0.491805136,"baseline"
"ap07","155","c","mismatch",1,0.864879423,"baseline"
"ap07","156","filler","mismatch",1,0.875480778,"baseline"
"ap08","1","i","match",1,0.6956616,"adapt"
"ap08","2","i","match",1,0.489018293,"adapt"
"ap08","3","c","match",1,0.485466539,"adapt"
"ap08","4","c","match",1,0.478011449,"adapt"
"ap08","5","i","mismatch",1,0.740741481,"adapt"
"ap08","6","i","match",1,0.844794529,"adapt"
"ap08","7","c","match",1,0.804956308,"adapt"
"ap08","8","filler","mismatch",1,0.749977581,"adapt"
"ap08","9","c","mismatch",1,0.632397265,"adapt"
"ap08","10","c","match",1,0.580798992,"adapt"
"ap08","11","i","match",1,0.614473931,"adapt"
"ap08","12","c","mismatch",1,0.543445266,"adapt"
"ap08","13","i","mismatch",1,0.656299107,"adapt"
"ap08","14","c","match",1,0.855171668,"adapt"
"ap08","15","i","mismatch",1,0.961684511,"adapt"
"ap08","16","c","match",1,0.544258141,"adapt"
"ap08","17","filler","match",0,0.748105147,"adapt"
"ap08","18","i","match",1,0.828174553,"adapt"
"ap08","19","i","match",1,0.48756609,"adapt"
"ap08","20","c","match",1,0.516511025,"adapt"
"ap08","21","filler","match",1,0.660845621,"adapt"
"ap08","22","c","mismatch",0,0.418794804,"adapt"
"ap08","23","c","mismatch",1,0.627085673,"adapt"
"ap08","24","i","match",1,0.461150241,"adapt"
"ap08","25","c","mismatch",1,0.571829786,"adapt"
"ap08","26","i","mismatch",1,0.666193462,"adapt"
"ap08","27","c","mismatch",1,0.560871701,"adapt"
"ap08","28","i","mismatch",1,0.72315369,"adapt"
"ap08","29","i","match",1,0.722434165,"adapt"
"ap08","30","c","match",1,0.497730548,"adapt"
"ap08","31","i","match",1,0.398591316,"adapt"
"ap08","32","c","mismatch",1,1.483801013,"adapt"
"ap08","33","i","mismatch",1,0.740408504,"adapt"
"ap08","34","i","mismatch",1,1.349936585,"adapt"
"ap08","35","i","mismatch",1,0.67147105,"adapt"
"ap08","36","c","mismatch",1,0.632912449,"adapt"
"ap08","37","i","mismatch",1,0.798253463,"adapt"
"ap08","38","i","mismatch",1,0.67152013,"adapt"
"ap08","39","i","mismatch",1,0.544660087,"adapt"
"ap08","40","c","mismatch",1,0.752280832,"adapt"
"ap08","41","c","match",1,0.641425816,"adapt"
"ap08","42","c","match",1,0.459958517,"adapt"
"ap08","43","i","match",1,0.894807793,"adapt"
"ap08","44","c","mismatch",1,0.690818999,"adapt"
"ap08","45","c","mismatch",1,0.60709615,"adapt"
"ap08","46","i","match",1,0.572400787,"adapt"
"ap08","47","c","match",1,0.913768552,"adapt"
"ap08","48","i","match",1,0.537495309,"adapt"
"ap08","49","c","match",1,0.415963217,"adapt"
"ap08","50","i","mismatch",1,0.515656448,"adapt"
"ap08","51","c","mismatch",1,0.46768371,"adapt"
"ap08","52","filler","mismatch",1,0.549245738,"adapt"
"ap08","53","c","match",1,0.607825299,"adapt"
"ap08","54","c","match",1,0.394872432,"adapt"
"ap08","55","i","mismatch",1,0.583408594,"adapt"
"ap08","56","i","mismatch",1,0.371231711,"adapt"
"ap08","57","i","match",1,0.465145643,"adapt"
"ap08","58","c","match",1,0.361871787,"adapt"
"ap08","59","i","match",1,0.462275241,"adapt"
"ap08","60","i","match",1,0.412915099,"adapt"
"ap08","61","filler","mismatch",1,0.423870296,"adapt"
"ap08","62","c","match",1,0.498322721,"adapt"
"ap08","63","i","match",1,0.369396488,"adapt"
"ap08","64","i","mismatch",1,0.510894686,"adapt"
"ap08","65","filler","match",1,0.650844765,"adapt"
"ap08","66","i","match",1,0.463591751,"adapt"
"ap08","67","c","match",1,0.582561075,"adapt"
"ap08","68","c","match",1,0.42629288,"adapt"
"ap08","69","i","match",1,0.462288714,"adapt"
"ap08","70","i","mismatch",1,0.476185529,"adapt"
"ap08","71","c","match",1,0.491463973,"adapt"
"ap08","72","c","mismatch",1,0.625037127,"adapt"
"ap08","73","i","mismatch",1,0.479185208,"adapt"
"ap08","74","i","mismatch",1,0.508163826,"adapt"
"ap08","75","i","match",1,0.49918243,"adapt"
"ap08","76","c","mismatch",1,0.487479157,"adapt"
"ap08","77","c","mismatch",1,0.773573071,"adapt"
"ap08","78","filler","match",0,0.449174619,"adapt"
"ap08","79","i","match",1,0.494665428,"adapt"
"ap08","80","i","mismatch",1,0.486127681,"adapt"
"ap08","81","i","mismatch",1,0.482097955,"adapt"
"ap08","82","c","mismatch",1,0.603353207,"adapt"
"ap08","83","c","mismatch",1,0.615852994,"adapt"
"ap08","84","i","match",1,0.482510487,"adapt"
"ap08","85","c","mismatch",1,0.587659985,"adapt"
"ap08","86","c","match",1,0.527103413,"adapt"
"ap08","87","i","mismatch",1,0.448835547,"adapt"
"ap08","88","filler","mismatch",1,0.548542572,"adapt"
"ap08","89","c","match",1,0.477252146,"adapt"
"ap08","90","c","mismatch",0,0.64214502,"adapt"
"ap08","91","i","match",1,0.451847417,"adapt"
"ap08","92","i","mismatch",1,0.581600959,"adapt"
"ap08","93","c","match",1,0.529167998,"adapt"
"ap08","94","c","mismatch",1,0.665847653,"adapt"
"ap08","95","i","match",1,0.466745408,"adapt"
"ap08","96","i","mismatch",1,0.475625755,"adapt"
"ap08","97","c","mismatch",0,0.443144144,"adapt"
"ap08","98","c","mismatch",1,0.590040866,"adapt"
"ap08","99","c","mismatch",1,0.545326682,"adapt"
"ap08","100","i","mismatch",1,0.596257077,"adapt"
"ap08","101","i","match",1,0.456020856,"adapt"
"ap08","102","c","match",0,0.50093906,"adapt"
"ap08","103","c","mismatch",1,0.810068049,"adapt"
"ap08","104","c","match",1,0.709794835,"adapt"
"ap08","105","i","match",1,0.664157539,"baseline"
"ap08","106","i","match",1,0.516039901,"baseline"
"ap08","107","c","match",1,0.416163179,"baseline"
"ap08","108","c","match",0,0.597857275,"baseline"
"ap08","109","i","mismatch",1,0.551915439,"baseline"
"ap08","110","i","match",1,0.545325832,"baseline"
"ap08","111","c","match",1,0.4688162,"baseline"
"ap08","112","filler","mismatch",0,0.540477457,"baseline"
"ap08","113","c","mismatch",1,0.884246313,"baseline"
"ap08","114","c","match",1,0.521186608,"baseline"
"ap08","115","i","match",1,0.687667699,"baseline"
"ap08","116","c","mismatch",1,0.422659438,"baseline"
"ap08","117","i","mismatch",0,0.591795683,"baseline"
"ap08","118","c","match",1,0.606371604,"baseline"
"ap08","119","i","mismatch",1,0.449176977,"baseline"
"ap08","120","c","match",1,0.553814819,"baseline"
"ap08","121","filler","match",0,0.573630797,"baseline"
"ap08","122","i","match",1,0.528094436,"baseline"
"ap08","123","i","match",0,0.524087164,"baseline"
"ap08","124","c","match",1,0.477259315,"baseline"
"ap08","125","filler","match",0,0.676584187,"baseline"
"ap08","126","c","mismatch",1,0.856064852,"baseline"
"ap08","127","c","mismatch",1,0.532965587,"baseline"
"ap08","128","i","match",1,0.730474163,"baseline"
"ap08","129","c","mismatch",1,0.626297932,"baseline"
"ap08","130","i","mismatch",1,0.505338446,"baseline"
"ap08","131","c","mismatch",1,0.976065185,"baseline"
"ap08","132","i","mismatch",1,1.066048835,"baseline"
"ap08","133","i","match",1,0.640553708,"baseline"
"ap08","134","c","match",1,0.673382411,"baseline"
"ap08","135","i","match",1,0.491627687,"baseline"
"ap08","136","c","mismatch",1,0.654575951,"baseline"
"ap08","137","i","mismatch",1,0.732010091,"baseline"
"ap08","138","i","mismatch",1,0.533240502,"baseline"
"ap08","139","i","mismatch",1,0.500801555,"baseline"
"ap08","140","c","mismatch",1,0.625807128,"baseline"
"ap08","141","i","mismatch",1,0.588026115,"baseline"
"ap08","142","i","mismatch",1,0.401083623,"baseline"
"ap08","143","i","mismatch",1,0.594595833,"baseline"
"ap08","144","c","mismatch",1,0.595549854,"baseline"
"ap08","145","c","match",1,0.590385503,"baseline"
"ap08","146","c","match",1,0.422936277,"baseline"
"ap08","147","i","match",1,0.437898426,"baseline"
"ap08","148","c","mismatch",1,0.551040332,"baseline"
"ap08","149","c","mismatch",1,0.550259216,"baseline"
"ap08","150","i","match",0,0.547131542,"baseline"
"ap08","151","c","match",1,0.499532521,"baseline"
"ap08","152","i","match",1,0.58515475,"baseline"
"ap08","153","c","match",1,0.467107368,"baseline"
"ap08","154","i","mismatch",1,0.497776533,"baseline"
"ap08","155","c","mismatch",1,0.533204253,"baseline"
"ap08","156","filler","mismatch",0,0.287473046,"baseline"
"ap08","157","c","match",1,0.591296539,"baseline"
"ap08","158","c","match",1,0.442764444,"baseline"
"ap08","159","i","mismatch",1,0.763534795,"baseline"
"ap08","160","i","mismatch",1,0.561642665,"baseline"
"ap08","161","i","match",1,0.550415439,"baseline"
"ap08","162","c","match",0,0.539457996,"baseline"
"ap08","163","i","match",1,0.588019699,"baseline"
"ap08","164","i","match",1,0.490240283,"baseline"
"ap08","165","filler","mismatch",1,0.587823377,"baseline"
"ap08","166","c","match",1,0.633675713,"baseline"
"ap08","167","i","match",1,0.462867205,"baseline"
"ap08","168","i","mismatch",1,0.656501956,"baseline"
"ap08","169","filler","match",1,0.584689288,"baseline"
"ap08","170","i","match",1,0.610491151,"baseline"
"ap08","171","c","match",1,0.545363364,"baseline"
"ap08","172","c","match",1,0.717510517,"baseline"
"ap08","173","i","match",1,0.502342615,"baseline"
"ap08","174","i","mismatch",1,0.470656556,"baseline"
"ap08","175","c","match",1,0.45364971,"baseline"
"ap08","176","c","mismatch",1,0.68468823,"baseline"
"ap08","177","i","mismatch",0,0.68859734,"baseline"
"ap08","178","i","mismatch",1,0.811829282,"baseline"
"ap08","179","i","match",1,0.605560013,"baseline"
"ap08","180","c","mismatch",1,0.622966559,"baseline"
"ap08","181","c","mismatch",1,0.484903029,"baseline"
"ap08","182","filler","match",0,0.391232574,"baseline"
"ap08","183","i","match",1,0.471164041,"baseline"
"ap08","184","i","mismatch",1,0.613116793,"baseline"
"ap08","185","i","mismatch",1,0.671734528,"baseline"
"ap08","186","c","mismatch",1,0.86376342,"baseline"
"ap08","187","c","mismatch",0,1.063650631,"baseline"
"ap08","188","i","match",0,0.685202772,"baseline"
"ap08","189","c","mismatch",1,0.539311075,"baseline"
"ap08","190","c","match",1,0.656369792,"baseline"
"ap08","191","i","mismatch",1,0.71487461,"baseline"
"ap08","192","filler","mismatch",1,0.639381873,"baseline"
"ap08","193","c","match",0,0.804601309,"baseline"
"ap08","194","c","mismatch",0,0.523501728,"baseline"
"ap08","195","i","match",1,0.432330204,"baseline"
"ap08","196","i","mismatch",1,0.7770364,"baseline"
"ap08","197","c","match",1,0.469783694,"baseline"
"ap08","198","c","mismatch",1,0.533974462,"baseline"
"ap08","199","i","match",1,0.635567715,"baseline"
"ap08","200","i","mismatch",1,0.602376843,"baseline"
"ap08","201","c","mismatch",1,0.692160001,"baseline"
"ap08","202","c","mismatch",1,0.465039254,"baseline"
"ap08","203","c","mismatch",1,0.492742422,"baseline"
"ap08","204","i","mismatch",1,0.46683117,"baseline"
"ap08","205","i","match",1,0.384047586,"baseline"
"ap08","206","c","match",1,0.501011029,"baseline"
"ap08","207","c","mismatch",1,0.478841116,"baseline"
"ap08","208","c","match",1,0.37751989,"baseline"
"ap09","1","i","match",1,1.0619859,"adapt"
"ap09","2","i","match",1,0.8808058,"adapt"
"ap09","3","c","match",1,1.0402147,"adapt"
"ap09","4","c","match",1,1.3036171,"adapt"
"ap09","5","i","mismatch",1,1.0833585,"adapt"
"ap09","6","i","match",1,0.7987241,"adapt"
"ap09","7","c","match",1,0.9199673,"adapt"
"ap09","8","filler","mismatch",1,0.7667082,"adapt"
"ap09","9","c","mismatch",1,0.5811397,"adapt"
"ap09","10","c","match",1,0.8151029,"adapt"
"ap09","11","i","match",1,1.209205,"adapt"
"ap09","12","c","mismatch",1,0.5161096,"adapt"
"ap09","13","i","mismatch",1,1.5097485,"adapt"
"ap09","14","c","match",1,0.7063968,"adapt"
"ap09","15","i","mismatch",1,0.5634569,"adapt"
"ap09","16","c","match",1,0.5587265,"adapt"
"ap09","17","filler","match",1,0.8264366,"adapt"
"ap09","18","i","match",1,0.6905362,"adapt"
"ap09","19","i","match",1,0.8410781,"adapt"
"ap09","20","c","match",1,0.6435465,"adapt"
"ap09","21","filler","match",1,0.6623222,"adapt"
"ap09","22","c","mismatch",1,0.8431646,"adapt"
"ap09","23","c","mismatch",1,0.6000181,"adapt"
"ap09","24","i","match",1,0.6562158,"adapt"
"ap09","25","c","mismatch",1,0.8595471,"adapt"
"ap09","26","i","mismatch",1,0.6194922,"adapt"
"ap09","27","c","mismatch",1,0.5726884,"adapt"
"ap09","28","i","mismatch",1,0.6252634,"adapt"
"ap09","29","i","match",1,0.4976564,"adapt"
"ap09","30","c","match",1,0.543905,"adapt"
"ap09","31","i","match",1,0.5927772,"adapt"
"ap09","32","c","mismatch",1,0.5106402,"adapt"
"ap09","33","i","mismatch",1,0.5715391,"adapt"
"ap09","34","i","mismatch",1,0.5089607,"adapt"
"ap09","35","i","mismatch",1,0.5874651,"adapt"
"ap09","36","c","mismatch",1,0.5450351,"adapt"
"ap09","37","i","mismatch",1,0.6245785,"adapt"
"ap09","38","i","mismatch",1,0.6202426,"adapt"
"ap09","39","i","mismatch",1,0.5106914,"adapt"
"ap09","40","c","mismatch",1,0.8203364,"adapt"
"ap09","41","c","match",1,0.4771902,"adapt"
"ap09","42","c","match",1,0.611786,"adapt"
"ap09","43","i","match",1,0.4316217,"adapt"
"ap09","44","c","mismatch",1,0.5534797,"adapt"
"ap09","45","c","mismatch",1,0.4871175,"adapt"
"ap09","46","i","match",1,0.4970462,"adapt"
"ap09","47","c","match",1,0.5651727,"adapt"
"ap09","48","i","match",1,0.6731462,"adapt"
"ap09","49","c","match",1,0.5821341,"adapt"
"ap09","50","i","mismatch",1,0.5440592,"adapt"
"ap09","51","c","mismatch",1,0.6406707,"adapt"
"ap09","52","filler","mismatch",1,0.6280499,"adapt"
"ap09","53","c","match",1,0.4497142,"adapt"
"ap09","54","c","match",1,0.5234152,"adapt"
"ap09","55","i","mismatch",1,0.6467323,"adapt"
"ap09","56","i","mismatch",1,0.5681876,"adapt"
"ap09","57","i","match",1,0.5827157,"adapt"
"ap09","58","c","match",1,0.4457073,"adapt"
"ap09","59","i","match",1,0.5311424,"adapt"
"ap09","60","i","match",1,0.5712519,"adapt"
"ap09","61","filler","mismatch",1,0.6502806,"adapt"
"ap09","62","c","match",1,0.5061578,"adapt"
"ap09","63","i","match",1,0.4696044,"adapt"
"ap09","64","i","mismatch",1,0.4905573,"adapt"
"ap09","65","filler","match",1,0.475427,"adapt"
"ap09","66","i","match",1,0.8054091,"adapt"
"ap09","67","c","match",1,0.3613413,"adapt"
"ap09","68","c","match",1,0.5871082,"adapt"
"ap09","69","i","match",1,0.5441329,"adapt"
"ap09","70","i","mismatch",1,0.4529729,"adapt"
"ap09","71","c","match",1,0.4298393,"adapt"
"ap09","72","c","mismatch",1,0.7453913,"adapt"
"ap09","73","i","mismatch",1,0.4576123,"adapt"
"ap09","74","i","mismatch",0,0.452422,"adapt"
"ap09","75","i","match",1,0.5733679,"adapt"
"ap09","76","c","mismatch",1,0.6029144,"adapt"
"ap09","77","c","mismatch",1,0.6224269,"adapt"
"ap09","78","filler","match",1,0.3567593,"adapt"
"ap09","79","i","match",1,0.4082872,"adapt"
"ap09","80","i","mismatch",1,0.4399196,"adapt"
"ap09","81","i","mismatch",1,0.4182967,"adapt"
"ap09","82","c","mismatch",1,0.4979121,"adapt"
"ap09","83","c","mismatch",1,0.551041,"adapt"
"ap09","84","i","match",1,0.4268573,"adapt"
"ap09","85","c","mismatch",1,0.5253301,"adapt"
"ap09","86","c","match",1,0.4109801,"adapt"
"ap09","87","i","mismatch",1,0.5956436,"adapt"
"ap09","88","filler","mismatch",1,0.7162893,"adapt"
"ap09","89","c","match",1,0.4279055,"adapt"
"ap09","90","c","mismatch",1,0.5821683,"adapt"
"ap09","91","i","match",1,0.4019976,"adapt"
"ap09","92","i","mismatch",1,0.5863082,"adapt"
"ap09","93","c","match",1,0.3569088,"adapt"
"ap09","94","c","mismatch",1,0.5275945,"adapt"
"ap09","95","i","match",1,0.4826946,"adapt"
"ap09","96","i","mismatch",1,0.5583172,"adapt"
"ap09","97","c","mismatch",1,0.4745267,"adapt"
"ap09","98","c","mismatch",1,0.5164939,"adapt"
"ap09","99","c","mismatch",1,0.4328372,"adapt"
"ap09","100","i","mismatch",1,0.4726261,"adapt"
"ap09","101","i","match",1,0.3972409,"adapt"
"ap09","102","c","match",1,0.3972446,"adapt"
"ap09","103","c","mismatch",1,0.4932509,"adapt"
"ap09","104","c","match",1,0.3488428,"adapt"
"ap09","105","i","match",1,0.892986541,"baseline"
"ap09","106","i","match",1,0.672301118,"baseline"
"ap09","107","c","match",1,0.724014299,"baseline"
"ap09","108","c","match",1,0.560009141,"baseline"
"ap09","109","i","mismatch",1,0.487097025,"baseline"
"ap09","110","i","match",1,0.589817689,"baseline"
"ap09","111","c","match",1,0.489660426,"baseline"
"ap09","112","filler","mismatch",1,0.835896977,"baseline"
"ap09","113","c","mismatch",1,0.649088919,"baseline"
"ap09","114","c","match",1,0.651021381,"baseline"
"ap09","115","i","match",1,0.611975302,"baseline"
"ap09","116","c","mismatch",1,0.784950286,"baseline"
"ap09","117","i","mismatch",1,0.526051351,"baseline"
"ap09","118","c","match",1,0.539479659,"baseline"
"ap09","119","i","mismatch",1,0.485107171,"baseline"
"ap09","120","c","match",1,0.444488088,"baseline"
"ap09","121","filler","match",1,0.815493984,"baseline"
"ap09","122","i","match",1,0.449809722,"baseline"
"ap09","123","i","match",1,0.493422648,"baseline"
"ap09","124","c","match",1,0.591680676,"baseline"
"ap09","125","filler","match",1,0.590676309,"baseline"
"ap09","126","c","mismatch",1,0.50408064,"baseline"
"ap09","127","c","mismatch",1,0.94842834,"baseline"
"ap09","128","i","match",1,0.496327382,"baseline"
"ap09","129","c","mismatch",1,0.807834366,"baseline"
"ap09","130","i","mismatch",1,1.065489925,"baseline"
"ap09","131","c","mismatch",1,0.580060983,"baseline"
"ap09","132","i","mismatch",0,0.815074491,"baseline"
"ap09","133","i","match",1,0.460469602,"baseline"
"ap09","134","c","match",1,0.398889461,"baseline"
"ap09","135","i","match",1,0.743810141,"baseline"
"ap09","136","c","mismatch",1,0.54682022,"baseline"
"ap09","137","i","mismatch",1,0.627797099,"baseline"
"ap09","138","i","mismatch",1,0.56529868,"baseline"
"ap09","139","i","mismatch",1,0.49924722,"baseline"
"ap09","140","c","mismatch",1,0.493771533,"baseline"
"ap09","141","i","mismatch",1,0.475839056,"baseline"
"ap09","142","i","mismatch",1,0.53468966,"baseline"
"ap09","143","i","mismatch",1,0.509326757,"baseline"
"ap09","144","c","mismatch",1,0.540676592,"baseline"
"ap09","145","c","match",1,0.519643038,"baseline"
"ap09","146","c","match",1,0.455875946,"baseline"
"ap09","147","i","match",1,0.498731443,"baseline"
"ap09","148","c","mismatch",1,0.893776442,"baseline"
"ap09","149","c","mismatch",1,0.748882948,"baseline"
"ap09","150","i","match",1,0.68336652,"baseline"
"ap09","151","c","match",1,0.503033607,"baseline"
"ap09","152","i","match",1,0.457502189,"baseline"
"ap09","153","c","match",1,0.531920855,"baseline"
"ap09","154","i","mismatch",1,0.811842016,"baseline"
"ap09","155","c","mismatch",1,0.548051136,"baseline"
"ap09","156","filler","mismatch",1,0.593067155,"baseline"
"ap10","1","i","match",1,0.9395429,"adapt"
"ap10","2","i","match",1,0.5928481,"adapt"
"ap10","3","c","match",1,1.230835,"adapt"
"ap10","4","c","match",1,0.7465746,"adapt"
"ap10","5","i","mismatch",1,0.9252932,"adapt"
"ap10","6","i","match",1,0.4515715,"adapt"
"ap10","7","c","match",1,1.0303198,"adapt"
"ap10","8","filler","mismatch",1,0.7743081,"adapt"
"ap10","9","c","mismatch",1,1.405504,"adapt"
"ap10","10","c","match",1,1.0067099,"adapt"
"ap10","11","i","match",1,1.0533986,"adapt"
"ap10","12","c","mismatch",1,0.8631888,"adapt"
"ap10","13","i","mismatch",1,0.7987229,"adapt"
"ap10","14","c","match",1,1.5949471,"adapt"
"ap10","15","i","mismatch",1,1.1616801,"adapt"
"ap10","16","c","match",1,1.0238287,"adapt"
"ap10","17","filler","match",0,0.728318,"adapt"
"ap10","18","i","match",0,0.9955763,"adapt"
"ap10","19","i","match",1,1.1526852,"adapt"
"ap10","20","c","match",1,0.8132515,"adapt"
"ap10","21","filler","match",1,1.6997723,"adapt"
"ap10","22","c","mismatch",1,1.5686303,"adapt"
"ap10","23","c","mismatch",1,1.4918772,"adapt"
"ap10","24","i","match",1,0.9791015,"adapt"
"ap10","25","c","mismatch",1,1.1559408,"adapt"
"ap10","26","i","mismatch",0,0.8447257,"adapt"
"ap10","27","c","mismatch",1,0.8557181,"adapt"
"ap10","28","i","mismatch",1,1.0987893,"adapt"
"ap10","29","i","match",1,0.9080907,"adapt"
"ap10","30","c","match",1,0.9837828,"adapt"
"ap10","31","i","match",1,1.0063649,"adapt"
"ap10","32","c","mismatch",1,1.7859655,"adapt"
"ap10","33","i","mismatch",0,NA,"adapt"
"ap10","34","i","mismatch",0,NA,"adapt"
"ap10","35","i","mismatch",1,0.8248685,"adapt"
"ap10","36","c","mismatch",1,1.2676331,"adapt"
"ap10","37","i","mismatch",1,0.9038084,"adapt"
"ap10","38","i","mismatch",1,0.8548416,"adapt"
"ap10","39","i","mismatch",1,0.8945186,"adapt"
"ap10","40","c","mismatch",1,0.8255658,"adapt"
"ap10","41","c","match",1,0.9132855,"adapt"
"ap10","42","c","match",1,1.8767548,"adapt"
"ap10","43","i","match",1,0.9700861,"adapt"
"ap10","44","c","mismatch",1,0.797466,"adapt"
"ap10","45","c","mismatch",1,0.852651,"adapt"
"ap10","46","i","match",1,1.3691446,"adapt"
"ap10","47","c","match",1,1.0059197,"adapt"
"ap10","48","i","match",1,1.0114023,"adapt"
"ap10","49","c","match",1,0.9793683,"adapt"
"ap10","50","i","mismatch",1,0.9334167,"adapt"
"ap10","51","c","mismatch",1,0.8625543,"adapt"
"ap10","52","filler","mismatch",1,1.0669128,"adapt"
"ap10","53","c","match",1,0.8499958,"adapt"
"ap10","54","c","match",1,0.8491781,"adapt"
"ap10","55","i","mismatch",1,0.6952833,"adapt"
"ap10","56","i","mismatch",1,0.8558075,"adapt"
"ap10","57","i","match",1,0.8155492,"adapt"
"ap10","58","c","match",1,1.2338399,"adapt"
"ap10","59","i","match",1,1.2132917,"adapt"
"ap10","60","i","match",1,0.8934904,"adapt"
"ap10","61","filler","mismatch",1,1.2559817,"adapt"
"ap10","62","c","match",1,0.8842982,"adapt"
"ap10","63","i","match",1,1.1727734,"adapt"
"ap10","64","i","mismatch",1,1.0622212,"adapt"
"ap10","65","filler","match",0,0.9993008,"adapt"
"ap10","66","i","match",1,0.7449818,"adapt"
"ap10","67","c","match",1,0.9676954,"adapt"
"ap10","68","c","match",1,0.8057454,"adapt"
"ap10","69","i","match",1,0.9793568,"adapt"
"ap10","70","i","mismatch",1,0.7436043,"adapt"
"ap10","71","c","match",1,0.9544562,"adapt"
"ap10","72","c","mismatch",0,0.8033855,"adapt"
"ap10","73","i","mismatch",1,0.6118949,"adapt"
"ap10","74","i","mismatch",1,0.7989082,"adapt"
"ap10","75","i","match",1,1.1007868,"adapt"
"ap10","76","c","mismatch",1,1.1359908,"adapt"
"ap10","77","c","mismatch",0,NA,"adapt"
"ap10","78","filler","match",1,1.3348039,"adapt"
"ap10","79","i","match",1,1.8457074,"adapt"
"ap10","80","i","mismatch",1,0.6046961,"adapt"
"ap10","81","i","mismatch",1,0.7492178,"adapt"
"ap10","82","c","mismatch",1,0.8404674,"adapt"
"ap10","83","c","mismatch",1,1.5119409,"adapt"
"ap10","84","i","match",1,1.0168345,"adapt"
"ap10","85","c","mismatch",1,0.705741,"adapt"
"ap10","86","c","match",1,0.9367921,"adapt"
"ap10","87","i","mismatch",1,0.4917532,"adapt"
"ap10","88","filler","mismatch",1,1.706998,"adapt"
"ap10","89","c","match",0,NA,"adapt"
"ap10","90","c","mismatch",1,1.0280982,"adapt"
"ap10","91","i","match",1,0.9765675,"adapt"
"ap10","92","i","mismatch",1,0.3279638,"adapt"
"ap10","93","c","match",0,1.4258676,"adapt"
"ap10","94","c","mismatch",1,0.7849331,"adapt"
"ap10","95","i","match",1,0.980074,"adapt"
"ap10","96","i","mismatch",1,0.4890327,"adapt"
"ap10","97","c","mismatch",1,0.5991056,"adapt"
"ap10","98","c","mismatch",1,1.7867788,"adapt"
"ap10","99","c","mismatch",0,0.6021375,"adapt"
"ap10","100","i","mismatch",1,1.1508159,"adapt"
"ap10","101","i","match",1,1.0187016,"adapt"
"ap10","102","c","match",0,1.0707329,"adapt"
"ap10","103","c","mismatch",1,0.7054632,"adapt"
"ap10","104","c","match",0,0.7673227,"adapt"
"ap10","105","i","match",1,0.6320416,"baseline"
"ap10","106","i","match",1,1.0158728,"baseline"
"ap10","107","c","match",1,0.5654933,"baseline"
"ap10","108","c","match",1,0.6588756,"baseline"
"ap10","109","i","mismatch",1,1.4640672,"baseline"
"ap10","110","i","match",1,0.4800581,"baseline"
"ap10","111","c","match",1,0.5805284,"baseline"
"ap10","112","filler","mismatch",1,0.6195064,"baseline"
"ap10","113","c","mismatch",1,0.8140116,"baseline"
"ap10","114","c","match",1,0.4555296,"baseline"
"ap10","115","i","match",1,1.0547184,"baseline"
"ap10","116","c","mismatch",1,1.1804677,"baseline"
"ap10","117","i","mismatch",1,0.8947622,"baseline"
"ap10","118","c","match",1,0.4095122,"baseline"
"ap10","119","i","mismatch",1,0.8148904,"baseline"
"ap10","120","c","match",1,0.628089,"baseline"
"ap10","121","filler","match",1,0.6739392,"baseline"
"ap10","122","i","match",1,0.9417294,"baseline"
"ap10","123","i","match",1,0.3967263,"baseline"
"ap10","124","c","match",1,0.7549713,"baseline"
"ap10","125","filler","match",1,0.9818996,"baseline"
"ap10","126","c","mismatch",1,0.8016928,"baseline"
"ap10","127","c","mismatch",1,1.1311367,"baseline"
"ap10","128","i","match",1,0.5761111,"baseline"
"ap10","129","c","mismatch",1,0.5404115,"baseline"
"ap10","130","i","mismatch",1,1.0211445,"baseline"
"ap10","131","c","mismatch",1,0.7526466,"baseline"
"ap10","132","i","mismatch",1,1.212939,"baseline"
"ap10","133","i","match",1,0.4083143,"baseline"
"ap10","134","c","match",1,0.8409098,"baseline"
"ap10","135","i","match",1,0.6655182,"baseline"
"ap10","136","c","mismatch",1,0.7312108,"baseline"
"ap10","137","i","mismatch",1,0.7806065,"baseline"
"ap10","138","i","mismatch",1,0.7131096,"baseline"
"ap10","139","i","mismatch",1,0.7239549,"baseline"
"ap10","140","c","mismatch",1,0.5052164,"baseline"
"ap10","141","i","mismatch",1,0.5851378,"baseline"
"ap10","142","i","mismatch",1,0.5766891,"baseline"
"ap10","143","i","mismatch",1,0.6710167,"baseline"
"ap10","144","c","mismatch",1,0.3982164,"baseline"
"ap10","145","c","match",1,0.3278764,"baseline"
"ap10","146","c","match",1,0.5276671,"baseline"
"ap10","147","i","match",1,0.4971635,"baseline"
"ap10","148","c","mismatch",1,0.7751274,"baseline"
"ap10","149","c","mismatch",1,0.7586888,"baseline"
"ap10","150","i","match",0,0.5132404,"baseline"
"ap10","151","c","match",1,0.4873819,"baseline"
"ap10","152","i","match",0,1.3027489,"baseline"
"ap10","153","c","match",1,0.4225762,"baseline"
"ap10","154","i","mismatch",1,0.5954316,"baseline"
"ap10","155","c","mismatch",0,0.5543373,"baseline"
"ap10","156","filler","mismatch",1,0.5512238,"baseline"
"ap10","157","c","match",1,0.5671945,"baseline"
"ap10","158","c","match",1,0.4640467,"baseline"
"ap10","159","i","mismatch",1,0.895771,"baseline"
"ap10","160","i","mismatch",1,0.9479214,"baseline"
"ap10","161","i","match",1,0.6650067,"baseline"
"ap10","162","c","match",1,0.6109935,"baseline"
"ap10","163","i","match",0,0.6925981,"baseline"
"ap10","164","i","match",1,0.5321853,"baseline"
"ap10","165","filler","mismatch",1,0.6368323,"baseline"
"ap10","166","c","match",1,1.259554,"baseline"
"ap10","167","i","match",1,0.6145619,"baseline"
"ap10","168","i","mismatch",1,0.6967279,"baseline"
"ap10","169","filler","match",1,0.750128,"baseline"
"ap10","170","i","match",1,0.6523438,"baseline"
"ap10","171","c","match",1,0.4480114,"baseline"
"ap10","172","c","match",1,1.1150693,"baseline"
"ap10","173","i","match",1,0.5221261,"baseline"
"ap10","174","i","mismatch",1,0.5254139,"baseline"
"ap10","175","c","match",1,0.6072072,"baseline"
"ap10","176","c","mismatch",1,0.5307705,"baseline"
"ap10","177","i","mismatch",1,0.5165243,"baseline"
"ap10","178","i","mismatch",1,1.1087445,"baseline"
"ap10","179","i","match",1,0.4759013,"baseline"
"ap10","180","c","mismatch",1,1.0844438,"baseline"
"ap10","181","c","mismatch",1,0.9618185,"baseline"
"ap10","182","filler","match",0,0.604689,"baseline"
"ap10","183","i","match",1,0.4339533,"baseline"
"ap10","184","i","mismatch",1,1.168291,"baseline"
"ap10","185","i","mismatch",1,0.631825,"baseline"
"ap10","186","c","mismatch",1,0.7860778,"baseline"
"ap10","187","c","mismatch",0,0.6783683,"baseline"
"ap10","188","i","match",1,1.3540239,"baseline"
"ap10","189","c","mismatch",1,0.4316583,"baseline"
"ap10","190","c","match",1,0.5352479,"baseline"
"ap10","191","i","mismatch",1,0.8022449,"baseline"
"ap10","192","filler","mismatch",1,0.7012012,"baseline"
"ap10","193","c","match",1,1.148099,"baseline"
"ap10","194","c","mismatch",1,0.7285195,"baseline"
"ap10","195","i","match",1,0.6058024,"baseline"
"ap10","196","i","mismatch",0,1.0622629,"baseline"
"ap10","197","c","match",1,0.5177815,"baseline"
"ap10","198","c","mismatch",1,0.7966258,"baseline"
"ap10","199","i","match",1,0.5793487,"baseline"
"ap10","200","i","mismatch",1,0.9727224,"baseline"
"ap10","201","c","mismatch",1,0.8670514,"baseline"
"ap10","202","c","mismatch",1,0.5114385,"baseline"
"ap10","203","c","mismatch",1,0.5733909,"baseline"
"ap10","204","i","mismatch",1,0.6468683,"baseline"
"ap10","205","i","match",1,0.4063836,"baseline"
"ap10","206","c","match",1,0.3427135,"baseline"
"ap10","207","c","mismatch",1,0.7462877,"baseline"
"ap10","208","c","match",1,0.4409032,"baseline"
"ap11","1","i","match",0,1.8520232,"adapt"
"ap11","2","i","match",1,1.184837,"adapt"
"ap11","3","c","match",1,1.2910381,"adapt"
"ap11","4","c","match",1,1.2325114,"adapt"
"ap11","5","i","mismatch",1,1.1456211,"adapt"
"ap11","6","i","match",1,1.3105463,"adapt"
"ap11","7","c","match",0,NA,"adapt"
"ap11","8","filler","mismatch",1,1.28956,"adapt"
"ap11","9","c","mismatch",1,0.8176517,"adapt"
"ap11","10","c","match",1,1.1163117,"adapt"
"ap11","11","i","match",1,1.0969043,"adapt"
"ap11","12","c","mismatch",1,1.5825298,"adapt"
"ap11","13","i","mismatch",1,1.8064338,"adapt"
"ap11","14","c","match",1,1.2610984,"adapt"
"ap11","15","i","mismatch",1,0.9128184,"adapt"
"ap11","16","c","match",1,1.1979851,"adapt"
"ap11","17","filler","match",1,0.920172,"adapt"
"ap11","18","i","match",1,1.1999858,"adapt"
"ap11","19","i","match",1,1.1113355,"adapt"
"ap11","20","c","match",1,0.9006736,"adapt"
"ap11","21","filler","match",1,0.9717385,"adapt"
"ap11","22","c","mismatch",0,1.0080967,"adapt"
"ap11","23","c","mismatch",1,1.005306,"adapt"
"ap11","24","i","match",1,1.3078738,"adapt"
"ap11","25","c","mismatch",1,1.0036761,"adapt"
"ap11","26","i","mismatch",1,0.8704846,"adapt"
"ap11","27","c","mismatch",1,1.1340614,"adapt"
"ap11","28","i","mismatch",1,1.3715021,"adapt"
"ap11","29","i","match",0,0.9782865,"adapt"
"ap11","30","c","match",1,1.2227159,"adapt"
"ap11","31","i","match",1,1.114455,"adapt"
"ap11","32","c","mismatch",1,1.1079562,"adapt"
"ap11","33","i","mismatch",1,0.9215644,"adapt"
"ap11","34","i","mismatch",1,0.9114442,"adapt"
"ap11","35","i","mismatch",1,1.0159201,"adapt"
"ap11","36","c","mismatch",1,1.2876013,"adapt"
"ap11","37","i","mismatch",1,1.4542213,"adapt"
"ap11","38","i","mismatch",1,1.7178894,"adapt"
"ap11","39","i","mismatch",1,1.3672254,"adapt"
"ap11","40","c","mismatch",1,1.5588237,"adapt"
"ap11","41","c","match",1,1.2139507,"adapt"
"ap11","42","c","match",1,1.0086335,"adapt"
"ap11","43","i","match",1,0.9355662,"adapt"
"ap11","44","c","mismatch",0,NA,"adapt"
"ap11","45","c","mismatch",1,1.1714991,"adapt"
"ap11","46","i","match",1,1.5041037,"adapt"
"ap11","47","c","match",1,1.4134256,"adapt"
"ap11","48","i","match",1,1.3050726,"adapt"
"ap11","49","c","match",1,1.0662976,"adapt"
"ap11","50","i","mismatch",1,1.4457422,"adapt"
"ap11","51","c","mismatch",1,1.0563138,"adapt"
"ap11","52","filler","mismatch",1,0.9616278,"adapt"
"ap11","53","c","match",1,1.0597938,"adapt"
"ap11","54","c","match",1,0.8911751,"adapt"
"ap11","55","i","mismatch",1,0.8001075,"adapt"
"ap11","56","i","mismatch",1,1.1161695,"adapt"
"ap11","57","i","match",1,1.2219401,"adapt"
"ap11","58","c","match",1,0.9076491,"adapt"
"ap11","59","i","match",1,1.0438686,"adapt"
"ap11","60","i","match",1,0.9346103,"adapt"
"ap11","61","filler","mismatch",1,0.9486861,"adapt"
"ap11","62","c","match",1,0.8798003,"adapt"
"ap11","63","i","match",0,0.9030293,"adapt"
"ap11","64","i","mismatch",0,NA,"adapt"
"ap11","65","filler","match",1,0.8812539,"adapt"
"ap11","66","i","match",1,0.7551069,"adapt"
"ap11","67","c","match",1,0.9188579,"adapt"
"ap11","68","c","match",0,1.2895503,"adapt"
"ap11","69","i","match",1,0.8523052,"adapt"
"ap11","70","i","mismatch",1,0.8564849,"adapt"
"ap11","71","c","match",1,1.1471573,"adapt"
"ap11","72","c","mismatch",1,0.7307231,"adapt"
"ap11","73","i","mismatch",1,1.1295875,"adapt"
"ap11","74","i","mismatch",1,0.6753609,"adapt"
"ap11","75","i","match",1,0.7290478,"adapt"
"ap11","76","c","mismatch",1,0.961462,"adapt"
"ap11","77","c","mismatch",1,0.8835851,"adapt"
"ap11","78","filler","match",1,1.0498141,"adapt"
"ap11","79","i","match",1,1.0149702,"adapt"
"ap11","80","i","mismatch",0,0.8049096,"adapt"
"ap11","81","i","mismatch",1,1.8087737,"adapt"
"ap11","82","c","mismatch",1,0.829026,"adapt"
"ap11","83","c","mismatch",1,0.9168321,"adapt"
"ap11","84","i","match",1,0.8671048,"adapt"
"ap11","85","c","mismatch",1,1.2390484,"adapt"
"ap11","86","c","match",1,1.0317719,"adapt"
"ap11","87","i","mismatch",1,1.5422646,"adapt"
"ap11","88","filler","mismatch",1,1.5501369,"adapt"
"ap11","89","c","match",0,1.3249497,"adapt"
"ap11","90","c","mismatch",1,1.2040404,"adapt"
"ap11","91","i","match",1,0.9750425,"adapt"
"ap11","92","i","mismatch",1,1.2594928,"adapt"
"ap11","93","c","match",1,0.9811361,"adapt"
"ap11","94","c","mismatch",1,1.7299312,"adapt"
"ap11","95","i","match",1,1.1662042,"adapt"
"ap11","96","i","mismatch",1,1.3055669,"adapt"
"ap11","97","c","mismatch",1,1.2569878,"adapt"
"ap11","98","c","mismatch",1,1.3054736,"adapt"
"ap11","99","c","mismatch",1,0.8811022,"adapt"
"ap11","100","i","mismatch",1,1.0915085,"adapt"
"ap11","101","i","match",1,1.3395227,"adapt"
"ap11","102","c","match",1,1.1510297,"adapt"
"ap11","103","c","mismatch",1,1.305748,"adapt"
"ap11","104","c","match",1,0.9747121,"adapt"
"ap11","105","i","match",1,0.7925909,"baseline"
"ap11","106","i","match",1,1.0491734,"baseline"
"ap11","107","c","match",1,0.8732027,"baseline"
"ap11","108","c","match",1,0.9093343,"baseline"
"ap11","109","i","mismatch",1,0.8486884,"baseline"
"ap11","110","i","match",1,1.0358027,"baseline"
"ap11","111","c","match",1,0.6616505,"baseline"
"ap11","112","filler","mismatch",1,0.7780058,"baseline"
"ap11","113","c","mismatch",1,0.8829113,"baseline"
"ap11","114","c","match",1,0.8922422,"baseline"
"ap11","115","i","match",1,0.9777921,"baseline"
"ap11","116","c","mismatch",1,1.4928533,"baseline"
"ap11","117","i","mismatch",1,1.6486755,"baseline"
"ap11","118","c","match",1,0.7118626,"baseline"
"ap11","119","i","mismatch",1,0.9032658,"baseline"
"ap11","120","c","match",1,0.6977411,"baseline"
"ap11","121","filler","match",1,1.3146935,"baseline"
"ap11","122","i","match",1,0.6578144,"baseline"
"ap11","123","i","match",1,0.7037846,"baseline"
"ap11","124","c","match",1,0.7561186,"baseline"
"ap11","125","filler","match",1,0.8562812,"baseline"
"ap11","126","c","mismatch",1,1.0501385,"baseline"
"ap11","127","c","mismatch",1,1.5431929,"baseline"
"ap11","128","i","match",1,0.7642517,"baseline"
"ap11","129","c","mismatch",1,0.8766126,"baseline"
"ap11","130","i","mismatch",1,1.1499626,"baseline"
"ap11","131","c","mismatch",1,0.8203709,"baseline"
"ap11","132","i","mismatch",1,0.8937866,"baseline"
"ap11","133","i","match",1,1.4805698,"baseline"
"ap11","134","c","match",1,1.1766086,"baseline"
"ap11","135","i","match",1,0.931173,"baseline"
"ap11","136","c","mismatch",0,NA,"baseline"
"ap11","137","i","mismatch",1,1.2537598,"baseline"
"ap11","138","i","mismatch",1,0.6230242,"baseline"
"ap11","139","i","mismatch",1,0.7003501,"baseline"
"ap11","140","c","mismatch",1,0.7335727,"baseline"
"ap11","141","i","mismatch",1,0.681793,"baseline"
"ap11","142","i","mismatch",1,1.0252595,"baseline"
"ap11","143","i","mismatch",1,1.1349348,"baseline"
"ap11","144","c","mismatch",1,0.8548269,"baseline"
"ap11","145","c","match",1,0.6811785,"baseline"
"ap11","146","c","match",1,0.7445348,"baseline"
"ap11","147","i","match",1,0.7883174,"baseline"
"ap11","148","c","mismatch",1,0.7480126,"baseline"
"ap11","149","c","mismatch",1,0.9151475,"baseline"
"ap11","150","i","match",1,1.1145594,"baseline"
"ap11","151","c","match",1,0.6284777,"baseline"
"ap11","152","i","match",1,0.5862724,"baseline"
"ap11","153","c","match",1,1.0612234,"baseline"
"ap11","154","i","mismatch",1,1.286153,"baseline"
"ap11","155","c","mismatch",1,0.7068362,"baseline"
"ap11","156","filler","mismatch",1,0.8916362,"baseline"
"ap12","1","i","match",1,1.00157,"adapt"
"ap12","2","i","match",1,0.7459064,"adapt"
"ap12","3","c","match",1,0.5370239,"adapt"
"ap12","4","c","match",1,0.5694377,"adapt"
"ap12","5","i","mismatch",1,1.451458,"adapt"
"ap12","6","i","match",1,0.5245583,"adapt"
"ap12","7","c","match",1,0.5200654,"adapt"
"ap12","8","filler","mismatch",1,0.6435199,"adapt"
"ap12","9","c","mismatch",1,0.682588,"adapt"
"ap12","10","c","match",1,0.7497211,"adapt"
"ap12","11","i","match",1,0.3399186,"adapt"
"ap12","12","c","mismatch",1,0.564916,"adapt"
"ap12","13","i","mismatch",1,0.5849391,"adapt"
"ap12","14","c","match",1,0.4356825,"adapt"
"ap12","15","i","mismatch",1,0.5218285,"adapt"
"ap12","16","c","match",1,0.5150024,"adapt"
"ap12","17","filler","match",1,0.6019577,"adapt"
"ap12","18","i","match",1,0.4608469,"adapt"
"ap12","19","i","match",1,1.0252454,"adapt"
"ap12","20","c","match",1,0.500722,"adapt"
"ap12","21","filler","match",1,0.5017217,"adapt"
"ap12","22","c","mismatch",1,0.5543582,"adapt"
"ap12","23","c","mismatch",1,0.6602221,"adapt"
"ap12","24","i","match",1,0.5290902,"adapt"
"ap12","25","c","mismatch",1,0.3724441,"adapt"
"ap12","26","i","mismatch",1,0.4976871,"adapt"
"ap12","27","c","mismatch",1,0.6084292,"adapt"
"ap12","28","i","mismatch",1,0.5739835,"adapt"
"ap12","29","i","match",1,0.4856652,"adapt"
"ap12","30","c","match",1,0.6428228,"adapt"
"ap12","31","i","match",1,0.593306,"adapt"
"ap12","32","c","mismatch",1,0.4581392,"adapt"
"ap12","33","i","mismatch",1,0.5927024,"adapt"
"ap12","34","i","mismatch",1,0.7380556,"adapt"
"ap12","35","i","mismatch",1,0.5463907,"adapt"
"ap12","36","c","mismatch",1,0.766771,"adapt"
"ap12","37","i","mismatch",1,0.65889,"adapt"
"ap12","38","i","mismatch",1,0.4992564,"adapt"
"ap12","39","i","mismatch",1,0.5923682,"adapt"
"ap12","40","c","mismatch",1,0.6827699,"adapt"
"ap12","41","c","match",1,0.5087983,"adapt"
"ap12","42","c","match",1,0.4449611,"adapt"
"ap12","43","i","match",1,0.5835409,"adapt"
"ap12","44","c","mismatch",1,0.5883925,"adapt"
"ap12","45","c","mismatch",1,0.7454303,"adapt"
"ap12","46","i","match",1,0.4920891,"adapt"
"ap12","47","c","match",1,0.4033336,"adapt"
"ap12","48","i","match",1,0.5244813,"adapt"
"ap12","49","c","match",1,0.390219,"adapt"
"ap12","50","i","mismatch",1,0.957002,"adapt"
"ap12","51","c","mismatch",1,0.6845587,"adapt"
"ap12","52","filler","mismatch",1,0.6207533,"adapt"
"ap12","53","i","match",1,0.4592911,"baseline"
"ap12","54","i","match",1,0.5005368,"baseline"
"ap12","55","c","match",1,0.4585033,"baseline"
"ap12","56","c","match",1,0.4880241,"baseline"
"ap12","57","i","mismatch",1,0.4988834,"baseline"
"ap12","58","i","match",1,0.7668208,"baseline"
"ap12","59","c","match",1,0.4948615,"baseline"
"ap12","60","filler","mismatch",1,0.5798927,"baseline"
"ap12","61","c","mismatch",1,0.3987505,"baseline"
"ap12","62","c","match",1,0.6143806,"baseline"
"ap12","63","i","match",1,0.5992726,"baseline"
"ap12","64","c","mismatch",1,0.4670435,"baseline"
"ap12","65","i","mismatch",1,0.8776488,"baseline"
"ap12","66","c","match",1,0.3772281,"baseline"
"ap12","67","i","mismatch",1,0.4871278,"baseline"
"ap12","68","c","match",1,0.5195825,"baseline"
"ap12","69","filler","match",1,0.7163866,"baseline"
"ap12","70","i","match",1,0.3877186,"baseline"
"ap12","71","i","match",1,0.4364207,"baseline"
"ap12","72","c","match",1,0.4567655,"baseline"
"ap12","73","filler","match",1,0.6246929,"baseline"
"ap12","74","c","mismatch",1,0.8018852,"baseline"
"ap12","75","c","mismatch",1,0.7748259,"baseline"
"ap12","76","i","match",1,0.4199893,"baseline"
"ap12","77","c","mismatch",1,1.9190728,"baseline"
"ap12","78","i","mismatch",1,1.529215,"baseline"
"ap12","79","c","mismatch",1,0.5397261,"baseline"
"ap12","80","i","mismatch",1,1.0479369,"baseline"
"ap12","81","i","match",1,0.4674913,"baseline"
"ap12","82","c","match",1,0.5605117,"baseline"
"ap12","83","i","match",1,0.4409289,"baseline"
"ap12","84","c","mismatch",1,1.1598185,"baseline"
"ap12","85","i","mismatch",0,0.6988842,"baseline"
"ap12","86","i","mismatch",1,0.5486837,"baseline"
"ap12","87","i","mismatch",1,1.1400348,"baseline"
"ap12","88","c","mismatch",1,0.6810552,"baseline"
"ap12","89","i","mismatch",1,0.5399757,"baseline"
"ap12","90","i","mismatch",1,0.7979872,"baseline"
"ap12","91","i","mismatch",1,0.555063,"baseline"
"ap12","92","c","mismatch",1,0.7794574,"baseline"
"ap12","93","c","match",1,0.960717,"baseline"
"ap12","94","c","match",1,0.5483988,"baseline"
"ap12","95","i","match",1,0.4179477,"baseline"
"ap12","96","c","mismatch",1,0.582038,"baseline"
"ap12","97","c","mismatch",1,1.0779061,"baseline"
"ap12","98","i","match",1,0.4894539,"baseline"
"ap12","99","c","match",1,0.9491281,"baseline"
"ap12","100","i","match",1,0.5047184,"baseline"
"ap12","101","c","match",1,0.6344632,"baseline"
"ap12","102","i","mismatch",1,0.4992349,"baseline"
"ap12","103","c","mismatch",1,0.440597,"baseline"
"ap12","104","filler","mismatch",1,0.9679141,"baseline"
"ap13","1","i","match",1,0.946371,"adapt"
"ap13","2","i","match",1,0.6399146,"adapt"
"ap13","3","c","match",0,0.9542366,"adapt"
"ap13","4","c","match",1,0.5994785,"adapt"
"ap13","5","i","mismatch",1,0.7703771,"adapt"
"ap13","6","i","match",1,0.6029488,"adapt"
"ap13","7","c","match",1,0.6562568,"adapt"
"ap13","8","filler","mismatch",1,0.9895234,"adapt"
"ap13","9","c","mismatch",1,0.89535,"adapt"
"ap13","10","c","match",1,1.0184778,"adapt"
"ap13","11","i","match",1,0.7937498,"adapt"
"ap13","12","c","mismatch",1,0.8899013,"adapt"
"ap13","13","i","mismatch",1,1.2157269,"adapt"
"ap13","14","c","match",1,0.7797145,"adapt"
"ap13","15","i","mismatch",1,1.0467224,"adapt"
"ap13","16","c","match",1,0.7180405,"adapt"
"ap13","17","filler","match",1,1.1586588,"adapt"
"ap13","18","i","match",1,0.8003409,"adapt"
"ap13","19","i","match",1,0.7905974,"adapt"
"ap13","20","c","match",1,0.8572696,"adapt"
"ap13","21","filler","match",1,0.7377481,"adapt"
"ap13","22","c","mismatch",1,0.7875472,"adapt"
"ap13","23","c","mismatch",1,0.9105584,"adapt"
"ap13","24","i","match",1,0.6619305,"adapt"
"ap13","25","c","mismatch",1,0.7684345,"adapt"
"ap13","26","i","mismatch",0,1.089459,"adapt"
"ap13","27","c","mismatch",1,1.0040765,"adapt"
"ap13","28","i","mismatch",1,0.8290932,"adapt"
"ap13","29","i","match",1,0.8988697,"adapt"
"ap13","30","c","match",1,1.6240224,"adapt"
"ap13","31","i","match",1,0.8298407,"adapt"
"ap13","32","c","mismatch",1,0.6404651,"adapt"
"ap13","33","i","mismatch",1,0.8668641,"adapt"
"ap13","34","i","mismatch",1,0.7013895,"adapt"
"ap13","35","i","mismatch",1,0.690771,"adapt"
"ap13","36","c","mismatch",0,0.949934,"adapt"
"ap13","37","i","mismatch",1,0.6365791,"adapt"
"ap13","38","i","mismatch",1,0.8034028,"adapt"
"ap13","39","i","mismatch",1,0.9492286,"adapt"
"ap13","40","c","mismatch",1,0.9317276,"adapt"
"ap13","41","c","match",1,1.2511373,"adapt"
"ap13","42","c","match",1,1.2588497,"adapt"
"ap13","43","i","match",1,0.6965096,"adapt"
"ap13","44","c","mismatch",1,0.7727247,"adapt"
"ap13","45","c","mismatch",1,0.6989888,"adapt"
"ap13","46","i","match",1,0.6254029,"adapt"
"ap13","47","c","match",1,0.6406485,"adapt"
"ap13","48","i","match",1,1.0016101,"adapt"
"ap13","49","c","match",1,0.7732341,"adapt"
"ap13","50","i","mismatch",1,1.2223688,"adapt"
"ap13","51","c","mismatch",1,1.4002858,"adapt"
"ap13","52","filler","mismatch",1,1.105755,"adapt"
"ap13","53","c","match",1,0.8606829,"adapt"
"ap13","54","c","match",1,0.8807369,"adapt"
"ap13","55","i","mismatch",1,0.8285082,"adapt"
"ap13","56","i","mismatch",1,1.2857819,"adapt"
"ap13","57","i","match",1,1.0826084,"adapt"
"ap13","58","c","match",1,0.7406533,"adapt"
"ap13","59","i","match",1,1.048736,"adapt"
"ap13","60","i","match",1,0.9793343,"adapt"
"ap13","61","filler","mismatch",1,0.7087018,"adapt"
"ap13","62","c","match",1,0.9686853,"adapt"
"ap13","63","i","match",1,0.8737185,"adapt"
"ap13","64","i","mismatch",1,0.7917617,"adapt"
"ap13","65","filler","match",0,0.7150469,"adapt"
"ap13","66","i","match",1,0.6353859,"adapt"
