"participant","trial_num","consistency","matching","key_resp_3.corr","key_resp_3.rt","stage"
"fp01","1","i","match",1,0.4172128,"adapt"
"fp01","2","i","match",1,0.3573522,"adapt"
"fp01","3","c","match",1,0.3592671,"adapt"
"fp01","4","c","match",1,0.3694323,"adapt"
"fp01","5","i","mismatch",1,0.2848158,"adapt"
"fp01","6","i","match",1,0.3384929,"adapt"
"fp01","7","c","match",1,0.3946099,"adapt"
"fp01","8","filler","mismatch",1,0.3155613,"adapt"
"fp01","9","c","mismatch",1,0.4146186,"adapt"
"fp01","10","c","match",1,0.3726257,"adapt"
"fp01","11","i","match",1,0.3392405,"adapt"
"fp01","12","c","mismatch",1,0.3578866,"adapt"
"fp01","13","i","mismatch",1,0.4805953,"adapt"
"fp01","14","c","match",1,0.3731991,"adapt"
"fp01","15","i","mismatch",0,0.3513824,"adapt"
"fp01","16","c","match",1,0.371478,"adapt"
"fp01","17","filler","match",1,0.7663489,"adapt"
"fp01","18","i","match",1,0.3693219,"adapt"
"fp01","19","i","match",1,0.314911,"adapt"
"fp01","20","c","match",1,0.3742173,"adapt"
"fp01","21","filler","match",0,0.3524557,"adapt"
"fp01","22","c","mismatch",1,0.3205468,"adapt"
"fp01","23","c","mismatch",1,0.4151582,"adapt"
"fp01","24","i","match",1,0.8568915,"adapt"
"fp01","25","c","mismatch",1,0.4767788,"adapt"
"fp01","26","i","mismatch",1,0.9497835,"adapt"
"fp01","27","c","mismatch",1,0.3768916,"adapt"
"fp01","28","i","mismatch",1,0.4325749,"adapt"
"fp01","29","i","match",1,0.4671913,"adapt"
"fp01","30","c","match",1,0.4488644,"adapt"
"fp01","31","i","match",1,0.4246091,"adapt"
"fp01","32","c","mismatch",1,0.3628708,"adapt"
"fp01","33","i","mismatch",1,0.4075409,"adapt"
"fp01","34","i","mismatch",1,0.4078651,"adapt"
"fp01","35","i","mismatch",1,0.5241941,"adapt"
"fp01","36","c","mismatch",1,0.3634428,"adapt"
"fp01","37","i","mismatch",1,0.4965437,"adapt"
"fp01","38","i","mismatch",1,0.3439624,"adapt"
"fp01","39","i","mismatch",1,0.91217,"adapt"
"fp01","40","c","mismatch",1,0.5301695,"adapt"
"fp01","41","c","match",1,0.4422609,"adapt"
"fp01","42","c","match",1,0.3630239,"adapt"
"fp01","43","i","match",1,0.3316109,"adapt"
"fp01","44","c","mismatch",1,0.4310332,"adapt"
"fp01","45","c","mismatch",1,0.444752,"adapt"
"fp01","46","i","match",0,0.3414558,"adapt"
"fp01","47","c","match",1,0.3189874,"adapt"
"fp01","48","i","match",1,0.3928432,"adapt"
"fp01","49","c","match",1,0.3367181,"adapt"
"fp01","50","i","mismatch",1,0.9442093,"adapt"
"fp01","51","c","mismatch",1,0.4868209,"adapt"
"fp01","52","filler","mismatch",1,0.3586965,"adapt"
"fp01","53","c","match",1,0.3354518,"adapt"
"fp01","54","c","match",1,0.4390185,"adapt"
"fp01","55","i","mismatch",1,0.4588926,"adapt"
"fp01","56","i","mismatch",1,0.5291515,"adapt"
"fp01","57","i","match",1,0.3690828,"adapt"
"fp01","58","c","match",1,0.3312767,"adapt"
"fp01","59","i","match",1,0.3767747,"adapt"
"fp01","60","i","match",1,0.3679685,"adapt"
"fp01","61","filler","mismatch",1,0.4460262,"adapt"
"fp01","62","c","match",1,0.3585669,"adapt"
"fp01","63","i","match",1,0.3582623,"adapt"
"fp01","64","i","mismatch",1,0.4496554,"adapt"
"fp01","65","filler","match",1,0.8353481,"adapt"
"fp01","66","i","match",1,0.339102,"adapt"
"fp01","67","c","match",1,0.3486498,"adapt"
"fp01","68","c","match",0,0.3828216,"adapt"
"fp01","69","i","match",1,0.322631,"adapt"
"fp01","70","i","mismatch",1,0.4148581,"adapt"
"fp01","71","c","match",1,0.3409602,"adapt"
"fp01","72","c","mismatch",1,0.404305,"adapt"
"fp01","73","i","mismatch",1,0.3709245,"adapt"
"fp01","74","i","mismatch",1,0.4745643,"adapt"
"fp01","75","i","match",1,0.3650328,"adapt"
"fp01","76","c","mismatch",1,0.3548472,"adapt"
"fp01","77","c","mismatch",0,0.3685779,"adapt"
"fp01","78","filler","match",1,0.6577227,"adapt"
"fp01","79","i","match",1,0.3423452,"adapt"
"fp01","80","i","mismatch",1,0.4129199,"adapt"
"fp01","81","i","mismatch",1,0.696633,"adapt"
"fp01","82","c","mismatch",1,0.4792418,"adapt"
"fp01","83","c","mismatch",1,0.3391758,"adapt"
"fp01","84","i","match",1,0.3803415,"adapt"
"fp01","85","c","mismatch",1,0.4313702,"adapt"
"fp01","86","c","match",1,0.3951284,"adapt"
"fp01","87","i","mismatch",1,0.3778542,"adapt"
"fp01","88","filler","mismatch",1,0.308726,"adapt"
"fp01","89","c","match",1,0.3042912,"adapt"
"fp01","90","c","mismatch",1,0.4407058,"adapt"
"fp01","91","i","match",1,0.5361295,"adapt"
"fp01","92","i","mismatch",1,0.6359847,"adapt"
"fp01","93","c","match",1,0.3422329,"adapt"
"fp01","94","c","mismatch",1,0.4343626,"adapt"
"fp01","95","i","match",1,0.3867108,"adapt"
"fp01","96","i","mismatch",1,0.4525496,"adapt"
"fp01","97","c","mismatch",1,0.6384845,"adapt"
"fp01","98","c","mismatch",1,0.4754802,"adapt"
"fp01","99","c","mismatch",1,0.4752155,"adapt"
"fp01","100","i","mismatch",1,0.325605,"adapt"
"fp01","101","i","match",1,0.4190508,"adapt"
"fp01","102","c","match",1,0.3868985,"adapt"
"fp01","103","c","mismatch",1,0.3695447,"adapt"
"fp01","104","c","match",1,0.3131307,"adapt"
"fp01","105","i","match",1,0.3791382,"baseline"
"fp01","106","i","match",1,0.4547669,"baseline"
"fp01","107","c","match",1,0.3386711,"baseline"
"fp01","108","c","match",1,0.5115317,"baseline"
"fp01","109","i","mismatch",1,0.4285545,"baseline"
"fp01","110","i","match",1,0.5092581,"baseline"
"fp01","111","c","match",1,0.3550282,"baseline"
"fp01","112","filler","mismatch",1,0.6215234,"baseline"
"fp01","113","c","mismatch",1,0.4001963,"baseline"
"fp01","114","c","match",1,0.4581401,"baseline"
"fp01","115","i","match",1,0.3713091,"baseline"
"fp01","116","c","mismatch",1,0.3852082,"baseline"
"fp01","117","i","mismatch",1,0.3814664,"baseline"
"fp01","118","c","match",1,0.5644736,"baseline"
"fp01","119","i","mismatch",1,0.3524884,"baseline"
"fp01","120","c","match",1,0.5287366,"baseline"
"fp01","121","filler","match",0,0.5354582,"baseline"
"fp01","122","i","match",1,0.4368624,"baseline"
"fp01","123","i","match",1,0.3750951,"baseline"
"fp01","124","c","match",1,0.3409833,"baseline"
"fp01","125","filler","match",1,0.5869166,"baseline"
"fp01","126","c","mismatch",1,0.4382908,"baseline"
"fp01","127","c","mismatch",1,0.3716103,"baseline"
"fp01","128","i","match",1,0.3996437,"baseline"
"fp01","129","c","mismatch",1,0.4981824,"baseline"
"fp01","130","i","mismatch",1,0.4644248,"baseline"
"fp01","131","c","mismatch",1,0.4034959,"baseline"
"fp01","132","i","mismatch",1,0.6206012,"baseline"
"fp01","133","i","match",1,0.3735716,"baseline"
"fp01","134","c","match",1,0.45492,"baseline"
"fp01","135","i","match",1,0.4226197,"baseline"
"fp01","136","c","mismatch",1,0.4244861,"baseline"
"fp01","137","i","mismatch",1,0.4809153,"baseline"
"fp01","138","i","mismatch",0,0.8645831,"baseline"
"fp01","139","i","mismatch",1,0.6423619,"baseline"
"fp01","140","c","mismatch",1,0.4740583,"baseline"
"fp01","141","i","mismatch",1,0.3716952,"baseline"
"fp01","142","i","mismatch",1,0.5907992,"baseline"
"fp01","143","i","mismatch",1,0.5890852,"baseline"
"fp01","144","c","mismatch",1,0.5328612,"baseline"
"fp01","145","c","match",1,0.433638,"baseline"
"fp01","146","c","match",1,0.3936638,"baseline"
"fp01","147","i","match",1,0.3509811,"baseline"
"fp01","148","c","mismatch",1,0.4052085,"baseline"
"fp01","149","c","mismatch",1,0.5311989,"baseline"
"fp01","150","i","match",1,0.3344951,"baseline"
"fp01","151","c","match",1,0.536253,"baseline"
"fp01","152","i","match",1,0.3594112,"baseline"
"fp01","153","c","match",1,0.3533864,"baseline"
"fp01","154","i","mismatch",1,0.3613959,"baseline"
"fp01","155","c","mismatch",1,0.3873757,"baseline"
"fp01","156","filler","mismatch",1,0.4112504,"baseline"
"fp01","157","c","match",1,0.5251492,"baseline"
"fp01","158","c","match",1,0.4042849,"baseline"
"fp01","159","i","mismatch",1,0.4697996,"baseline"
"fp01","160","i","mismatch",1,0.4646485,"baseline"
"fp01","161","i","match",1,0.4182179,"baseline"
"fp01","162","c","match",1,0.3722645,"baseline"
"fp01","163","i","match",1,0.3956478,"baseline"
"fp01","164","i","match",1,0.334738,"baseline"
"fp01","165","filler","mismatch",1,0.59264,"baseline"
"fp01","166","c","match",1,0.3576047,"baseline"
"fp01","167","i","match",1,0.282346,"baseline"
"fp01","168","i","mismatch",1,0.4986416,"baseline"
"fp01","169","filler","match",0,0.7894208,"baseline"
"fp01","170","i","match",1,0.3140145,"baseline"
"fp01","171","c","match",1,0.3913404,"baseline"
"fp01","172","c","match",1,0.31049,"baseline"
"fp01","173","i","match",1,0.340734,"baseline"
"fp01","174","i","mismatch",1,0.3729569,"baseline"
"fp01","175","c","match",1,0.5114971,"baseline"
"fp01","176","c","mismatch",1,0.4027301,"baseline"
"fp01","177","i","mismatch",1,0.3588293,"baseline"
"fp01","178","i","mismatch",1,0.5441403,"baseline"
"fp01","179","i","match",1,0.5063097,"baseline"
"fp01","180","c","mismatch",1,0.4254614,"baseline"
"fp01","181","c","mismatch",1,0.5652588,"baseline"
"fp01","182","filler","match",0,0.5649877,"baseline"
"fp01","183","i","match",1,0.3903838,"baseline"
"fp01","184","i","mismatch",1,0.3555617,"baseline"
"fp01","185","i","mismatch",1,0.2923822,"baseline"
"fp01","186","c","mismatch",1,0.3506017,"baseline"
"fp01","187","c","mismatch",1,0.3498415,"baseline"
"fp01","188","i","match",1,0.3771413,"baseline"
"fp01","189","c","mismatch",1,0.3947802,"baseline"
"fp01","190","c","match",1,0.3706187,"baseline"
"fp01","191","i","mismatch",1,0.511053,"baseline"
"fp01","192","filler","mismatch",1,0.4504637,"baseline"
"fp01","193","c","match",1,0.5222985,"baseline"
"fp01","194","c","mismatch",1,0.394753,"baseline"
"fp01","195","i","match",1,0.3996735,"baseline"
"fp01","196","i","mismatch",1,0.3752619,"baseline"
"fp01","197","c","match",1,0.3611691,"baseline"
"fp01","198","c","mismatch",1,0.4986227,"baseline"
"fp01","199","i","match",1,0.4513544,"baseline"
"fp01","200","i","mismatch",1,0.4708909,"baseline"
"fp01","201","c","mismatch",1,0.4517861,"baseline"
"fp01","202","c","mismatch",1,0.4085951,"baseline"
"fp01","203","c","mismatch",1,0.4771145,"baseline"
"fp01","204","i","mismatch",1,0.5457606,"baseline"
"fp01","205","i","match",1,0.3436874,"baseline"
"fp01","206","c","match",1,0.3725935,"baseline"
"fp01","207","c","mismatch",1,0.3732045,"baseline"
"fp01","208","c","match",1,0.3678945,"baseline"
"fp02","1","i","match",1,0.4814404,"adapt"
"fp02","2","i","match",1,0.4266603,"adapt"
"fp02","3","c","match",1,0.5547017,"adapt"
"fp02","4","c","match",1,0.3802114,"adapt"
"fp02","5","i","mismatch",1,0.3385418,"adapt"
"fp02","6","i","match",1,0.3760284,"adapt"
"fp02","7","c","match",1,0.3868739,"adapt"
"fp02","8","filler","mismatch",1,0.559487,"adapt"
"fp02","9","c","mismatch",1,0.4377079,"adapt"
"fp02","10","c","match",1,0.3715156,"adapt"
"fp02","11","i","match",1,0.3567209,"adapt"
"fp02","12","c","mismatch",1,0.3719066,"adapt"
"fp02","13","i","mismatch",1,0.4920501,"adapt"
"fp02","14","c","match",1,0.3462535,"adapt"
"fp02","15","i","mismatch",1,0.5551617,"adapt"
"fp02","16","c","match",1,0.5329778,"adapt"
"fp02","17","filler","match",1,0.441694,"adapt"
"fp02","18","i","match",1,0.4203981,"adapt"
"fp02","19","i","match",1,0.3626313,"adapt"
"fp02","20","c","match",1,0.3864007,"adapt"
"fp02","21","filler","match",1,0.8046122,"adapt"
"fp02","22","c","mismatch",1,0.4180191,"adapt"
"fp02","23","c","mismatch",1,0.5304914,"adapt"
"fp02","24","i","match",1,0.4634264,"adapt"
"fp02","25","c","mismatch",1,0.5770762,"adapt"
"fp02","26","i","mismatch",1,0.3637815,"adapt"
"fp02","27","c","mismatch",1,0.473983,"adapt"
"fp02","28","i","mismatch",1,0.3644007,"adapt"
"fp02","29","i","match",1,0.4446986,"adapt"
"fp02","30","c","match",1,0.4129212,"adapt"
"fp02","31","i","match",1,0.4069474,"adapt"
"fp02","32","c","mismatch",1,0.3625984,"adapt"
"fp02","33","i","mismatch",1,0.3544971,"adapt"
"fp02","34","i","mismatch",1,0.4158497,"adapt"
"fp02","35","i","mismatch",1,0.4153066,"adapt"
"fp02","36","c","mismatch",1,1.10269,"adapt"
"fp02","37","i","mismatch",1,0.39226,"adapt"
"fp02","38","i","mismatch",1,0.3667685,"adapt"
"fp02","39","i","mismatch",1,0.5306453,"adapt"
"fp02","40","c","mismatch",1,0.3911661,"adapt"
"fp02","41","c","match",1,0.5334368,"adapt"
"fp02","42","c","match",1,0.4953727,"adapt"
"fp02","43","i","match",1,0.3827203,"adapt"
"fp02","44","c","mismatch",1,0.5354701,"adapt"
"fp02","45","c","mismatch",1,0.5013872,"adapt"
"fp02","46","i","match",1,0.866929,"adapt"
"fp02","47","c","match",1,0.3518216,"adapt"
"fp02","48","i","match",1,0.4269777,"adapt"
"fp02","49","c","match",1,0.5644971,"adapt"
"fp02","50","i","mismatch",1,0.3448316,"adapt"
"fp02","51","c","mismatch",1,0.6341797,"adapt"
"fp02","52","filler","mismatch",1,0.5737211,"adapt"
"fp02","53","c","match",1,0.3856972,"adapt"
"fp02","54","c","match",1,0.5500735,"adapt"
"fp02","55","i","mismatch",1,0.4405714,"adapt"
"fp02","56","i","mismatch",1,0.7135143,"adapt"
"fp02","57","i","match",1,0.3585529,"adapt"
"fp02","58","c","match",1,0.5045363,"adapt"
"fp02","59","i","match",1,0.4607955,"adapt"
"fp02","60","i","match",1,0.3889525,"adapt"
"fp02","61","filler","mismatch",1,0.4824111,"adapt"
"fp02","62","c","match",1,0.3555337,"adapt"
"fp02","63","i","match",1,0.3391393,"adapt"
"fp02","64","i","mismatch",1,0.5530236,"adapt"
"fp02","65","filler","match",1,0.8135322,"adapt"
"fp02","66","i","match",1,0.4115266,"adapt"
"fp02","67","c","match",1,0.3751321,"adapt"
"fp02","68","c","match",1,0.6618939,"adapt"
"fp02","69","i","match",1,0.6411053,"adapt"
"fp02","70","i","mismatch",1,0.9534496,"adapt"
"fp02","71","c","match",1,0.8856067,"adapt"
"fp02","72","c","mismatch",1,0.5462764,"adapt"
"fp02","73","i","mismatch",1,0.3805979,"adapt"
"fp02","74","i","mismatch",1,0.4663636,"adapt"
"fp02","75","i","match",1,0.3575941,"adapt"
"fp02","76","c","mismatch",1,0.55402,"adapt"
"fp02","77","c","mismatch",1,0.4375128,"adapt"
"fp02","78","filler","match",1,0.4091488,"adapt"
"fp02","79","i","match",1,0.532056,"adapt"
"fp02","80","i","mismatch",1,0.4084143,"adapt"
"fp02","81","i","mismatch",1,0.3950961,"adapt"
"fp02","82","c","mismatch",1,0.4342203,"adapt"
"fp02","83","c","mismatch",1,0.3774075,"adapt"
"fp02","84","i","match",1,0.3382994,"adapt"
"fp02","85","c","mismatch",1,0.4382463,"adapt"
"fp02","86","c","match",1,0.5714101,"adapt"
"fp02","87","i","mismatch",1,0.4524999,"adapt"
"fp02","88","filler","mismatch",1,0.3993544,"adapt"
"fp02","89","c","match",1,0.4027571,"adapt"
"fp02","90","c","mismatch",1,0.5199709,"adapt"
"fp02","91","i","match",1,0.749607,"adapt"
"fp02","92","i","mismatch",1,0.3833868,"adapt"
"fp02","93","c","match",1,0.45515,"adapt"
"fp02","94","c","mismatch",1,0.4071019,"adapt"
"fp02","95","i","match",1,0.5027895,"adapt"
"fp02","96","i","mismatch",1,0.3876189,"adapt"
"fp02","97","c","mismatch",1,0.4545383,"adapt"
"fp02","98","c","mismatch",1,0.4732872,"adapt"
"fp02","99","c","mismatch",1,0.553477,"adapt"
"fp02","100","i","mismatch",1,0.6068305,"adapt"
"fp02","101","i","match",1,0.3540917,"adapt"
"fp02","102","c","match",1,0.4235106,"adapt"
"fp02","103","c","mismatch",1,1.2601674,"adapt"
"fp02","104","c","match",1,0.3850432,"adapt"
"fp02","105","i","match",1,0.351502,"baseline"
"fp02","106","i","match",1,0.3855482,"baseline"
"fp02","107","c","match",1,0.3820807,"baseline"
"fp02","108","c","match",1,0.6375856,"baseline"
"fp02","109","i","mismatch",1,0.9181375,"baseline"
"fp02","110","i","match",1,0.6033133,"baseline"
"fp02","111","c","match",1,0.4390349,"baseline"
"fp02","112","filler","mismatch",0,0.3553708,"baseline"
"fp02","113","c","mismatch",1,0.390978,"baseline"
"fp02","114","c","match",1,0.6423463,"baseline"
"fp02","115","i","match",1,0.476525,"baseline"
"fp02","116","c","mismatch",1,0.4127499,"baseline"
"fp02","117","i","mismatch",1,0.4274392,"baseline"
"fp02","118","c","match",1,0.4623249,"baseline"
"fp02","119","i","mismatch",1,0.3077629,"baseline"
"fp02","120","c","match",1,0.7052924,"baseline"
"fp02","121","filler","match",1,0.7358455,"baseline"
"fp02","122","i","match",1,0.4242443,"baseline"
"fp02","123","i","match",1,0.3772916,"baseline"
"fp02","124","c","match",1,0.4049984,"baseline"
"fp02","125","filler","match",0,0.35156,"baseline"
"fp02","126","c","mismatch",1,0.3804262,"baseline"
"fp02","127","c","mismatch",1,0.460673,"baseline"
"fp02","128","i","match",1,0.3631446,"baseline"
"fp02","129","c","mismatch",1,0.461658,"baseline"
"fp02","130","i","mismatch",1,0.5333642,"baseline"
"fp02","131","c","mismatch",1,0.4567725,"baseline"
"fp02","132","i","mismatch",1,0.4010062,"baseline"
"fp02","133","i","match",1,0.5542548,"baseline"
"fp02","134","c","match",1,0.428408,"baseline"
"fp02","135","i","match",1,0.6585648,"baseline"
"fp02","136","c","mismatch",1,0.4306674,"baseline"
"fp02","137","i","mismatch",1,0.3882386,"baseline"
"fp02","138","i","mismatch",1,0.3297071,"baseline"
"fp02","139","i","mismatch",1,0.5803508,"baseline"
"fp02","140","c","mismatch",1,0.5383705,"baseline"
"fp02","141","i","mismatch",1,0.3646414,"baseline"
"fp02","142","i","mismatch",1,0.4161756,"baseline"
"fp02","143","i","mismatch",1,0.5311224,"baseline"
"fp02","144","c","mismatch",1,0.5451568,"baseline"
"fp02","145","c","match",1,0.3516087,"baseline"
"fp02","146","c","match",1,0.331841,"baseline"
"fp02","147","i","match",1,0.3204447,"baseline"
"fp02","148","c","mismatch",1,0.3978929,"baseline"
"fp02","149","c","mismatch",1,0.3804838,"baseline"
"fp02","150","i","match",1,0.3360954,"baseline"
"fp02","151","c","match",1,0.3893275,"baseline"
"fp02","152","i","match",1,0.3316969,"baseline"
"fp02","153","c","match",1,0.4283193,"baseline"
"fp02","154","i","mismatch",1,0.458011,"baseline"
"fp02","155","c","mismatch",1,0.4436676,"baseline"
"fp02","156","filler","mismatch",1,0.5915202,"baseline"
"fp02","157","c","match",1,0.3875387,"baseline"
"fp02","158","c","match",1,0.4777687,"baseline"
"fp02","159","i","mismatch",1,0.517859,"baseline"
"fp02","160","i","mismatch",1,0.4513443,"baseline"
"fp02","161","i","match",1,0.4609158,"baseline"
"fp02","162","c","match",1,0.4748411,"baseline"
"fp02","163","i","match",1,0.3520823,"baseline"
"fp02","164","i","match",1,0.4147173,"baseline"
"fp02","165","filler","mismatch",1,0.4431709,"baseline"
"fp02","166","c","match",1,0.4869394,"baseline"
"fp02","167","i","match",1,0.4982411,"baseline"
"fp02","168","i","mismatch",1,0.6253389,"baseline"
"fp02","169","filler","match",1,0.4038925,"baseline"
"fp02","170","i","match",1,0.3492192,"baseline"
"fp02","171","c","match",1,0.4156057,"baseline"
"fp02","172","c","match",1,0.4706425,"baseline"
"fp02","173","i","match",1,0.4215633,"baseline"
"fp02","174","i","mismatch",1,0.3410263,"baseline"
"fp02","175","c","match",1,0.3777823,"baseline"
"fp02","176","c","mismatch",1,0.4315688,"baseline"
"fp02","177","i","mismatch",1,0.4000829,"baseline"
"fp02","178","i","mismatch",1,0.3908076,"baseline"
"fp02","179","i","match",1,0.4537608,"baseline"
"fp02","180","c","mismatch",1,0.6133753,"baseline"
"fp02","181","c","mismatch",1,0.6282889,"baseline"
"fp02","182","filler","match",1,0.389937,"baseline"
"fp02","183","i","match",1,0.4644822,"baseline"
"fp02","184","i","mismatch",1,0.4129036,"baseline"
"fp02","185","i","mismatch",1,0.2950949,"baseline"
"fp02","186","c","mismatch",1,0.3999064,"baseline"
"fp02","187","c","mismatch",1,0.4591279,"baseline"
"fp02","188","i","match",1,0.5705309,"baseline"
"fp02","189","c","mismatch",1,0.7017636,"baseline"
"fp02","190","c","match",1,0.3415972,"baseline"
"fp02","191","i","mismatch",1,0.4236068,"baseline"
"fp02","192","filler","mismatch",1,0.495644,"baseline"
"fp02","193","c","match",1,0.3110384,"baseline"
"fp02","194","c","mismatch",1,0.480868,"baseline"
"fp02","195","i","match",1,0.380983,"baseline"
"fp02","196","i","mismatch",1,0.5799492,"baseline"
"fp02","197","c","match",1,0.8211805,"baseline"
"fp02","198","c","mismatch",1,0.4902125,"baseline"
"fp02","199","i","match",1,0.5970229,"baseline"
"fp02","200","i","mismatch",1,0.4318737,"baseline"
"fp02","201","c","mismatch",1,0.4193675,"baseline"
"fp02","202","c","mismatch",1,0.5121274,"baseline"
"fp02","203","c","mismatch",1,0.5543846,"baseline"
"fp02","204","i","mismatch",1,0.4621994,"baseline"
"fp02","205","i","match",1,0.4041513,"baseline"
"fp02","206","c","match",1,0.3971819,"baseline"
"fp02","207","c","mismatch",1,0.6314693,"baseline"
"fp02","208","c","match",1,0.3945607,"baseline"
"fp03","1","i","match",1,0.4352285,"adapt"
"fp03","2","i","match",1,0.4336389,"adapt"
"fp03","3","c","match",1,0.5854106,"adapt"
"fp03","4","c","match",1,0.4490829,"adapt"
"fp03","5","i","mismatch",1,0.4244059,"adapt"
"fp03","6","i","match",1,0.4873964,"adapt"
"fp03","7","c","match",1,0.3747765,"adapt"
"fp03","8","filler","mismatch",1,0.7346303,"adapt"
"fp03","9","c","mismatch",1,0.4616338,"adapt"
"fp03","10","c","match",1,0.5118502,"adapt"
"fp03","11","i","match",1,0.4733645,"adapt"
"fp03","12","c","mismatch",1,0.4394225,"adapt"
"fp03","13","i","mismatch",1,0.5025906,"adapt"
"fp03","14","c","match",1,0.4767346,"adapt"
"fp03","15","i","mismatch",1,0.4348398,"adapt"
"fp03","16","c","match",1,0.5071484,"adapt"
"fp03","17","filler","match",1,0.4684334,"adapt"
"fp03","18","i","match",1,0.6468232,"adapt"
"fp03","19","i","match",1,0.6515532,"adapt"
"fp03","20","c","match",1,0.5456914,"adapt"
"fp03","21","filler","match",1,0.5093269,"adapt"
"fp03","22","c","mismatch",1,0.5349771,"adapt"
"fp03","23","c","mismatch",1,0.5484404,"adapt"
"fp03","24","i","match",1,0.4492253,"adapt"
"fp03","25","c","mismatch",1,0.3413878,"adapt"
"fp03","26","i","mismatch",1,0.3156031,"adapt"
"fp03","27","c","mismatch",1,0.3557439,"adapt"
"fp03","28","i","mismatch",1,0.4232582,"adapt"
"fp03","29","i","match",1,0.5135024,"adapt"
"fp03","30","c","match",1,0.5644504,"adapt"
"fp03","31","i","match",0,0.5307484,"adapt"
"fp03","32","c","mismatch",1,0.5246359,"adapt"
"fp03","33","i","mismatch",1,0.5190721,"adapt"
"fp03","34","i","mismatch",1,0.4886801,"adapt"
"fp03","35","i","mismatch",1,0.406118,"adapt"
"fp03","36","c","mismatch",1,0.3252342,"adapt"
"fp03","37","i","mismatch",1,0.5189604,"adapt"
"fp03","38","i","mismatch",1,0.4018991,"adapt"
"fp03","39","i","mismatch",1,0.3910402,"adapt"
"fp03","40","c","mismatch",1,0.5559843,"adapt"
"fp03","41","c","match",1,0.5415489,"adapt"
"fp03","42","c","match",1,0.4125464,"adapt"
"fp03","43","i","match",0,0.5123824,"adapt"
"fp03","44","c","mismatch",1,0.4707522,"adapt"
"fp03","45","c","mismatch",1,0.480305,"adapt"
"fp03","46","i","match",1,0.4994275,"adapt"
"fp03","47","c","match",1,0.5196961,"adapt"
"fp03","48","i","match",1,0.51374,"adapt"
"fp03","49","c","match",1,0.4058335,"adapt"
"fp03","50","i","mismatch",1,0.4582889,"adapt"
"fp03","51","c","mismatch",1,0.3410335,"adapt"
"fp03","52","filler","mismatch",1,0.4884853,"adapt"
"fp03","53","c","match",0,0.3257748,"adapt"
"fp03","54","c","match",1,0.3517643,"adapt"
"fp03","55","i","mismatch",1,0.4707691,"adapt"
"fp03","56","i","mismatch",1,0.4880435,"adapt"
"fp03","57","i","match",1,0.4949461,"adapt"
"fp03","58","c","match",1,0.4107912,"adapt"
"fp03","59","i","match",1,0.5485997,"adapt"
"fp03","60","i","match",1,0.4662068,"adapt"
"fp03","61","filler","mismatch",1,0.494833,"adapt"
"fp03","62","c","match",1,0.3954651,"adapt"
"fp03","63","i","match",1,0.3303792,"adapt"
"fp03","64","i","mismatch",1,0.523076,"adapt"
"fp03","65","filler","match",1,0.532487,"adapt"
"fp03","66","i","match",1,0.4255939,"adapt"
"fp03","67","c","match",1,0.4872698,"adapt"
"fp03","68","c","match",1,0.4011885,"adapt"
"fp03","69","i","match",1,0.4515103,"adapt"
"fp03","70","i","mismatch",1,0.5887777,"adapt"
"fp03","71","c","match",1,0.3884827,"adapt"
"fp03","72","c","mismatch",1,0.4065902,"adapt"
"fp03","73","i","mismatch",1,0.439529,"adapt"
"fp03","74","i","mismatch",1,0.4466183,"adapt"
"fp03","75","i","match",1,0.6627262,"adapt"
"fp03","76","c","mismatch",1,0.3962097,"adapt"
"fp03","77","c","mismatch",1,0.4685321,"adapt"
"fp03","78","filler","match",1,0.4507858,"adapt"
"fp03","79","i","match",1,0.4165161,"adapt"
"fp03","80","i","mismatch",1,0.4535624,"adapt"
"fp03","81","i","mismatch",1,0.4286838,"adapt"
"fp03","82","c","mismatch",1,0.3992326,"adapt"
"fp03","83","c","mismatch",1,0.4430603,"adapt"
"fp03","84","i","match",1,0.4022772,"adapt"
"fp03","85","c","mismatch",1,0.429649,"adapt"
"fp03","86","c","match",1,0.4220297,"adapt"
"fp03","87","i","mismatch",1,0.4592067,"adapt"
"fp03","88","filler","mismatch",1,0.3475563,"adapt"
"fp03","89","c","match",1,0.5296361,"adapt"
"fp03","90","c","mismatch",1,0.5440438,"adapt"
"fp03","91","i","match",1,0.4964638,"adapt"
"fp03","92","i","mismatch",1,0.4991969,"adapt"
"fp03","93","c","match",1,0.6176483,"adapt"
"fp03","94","c","mismatch",1,0.8684947,"adapt"
"fp03","95","i","match",1,0.5489622,"adapt"
"fp03","96","i","mismatch",1,0.4736417,"adapt"
"fp03","97","c","mismatch",1,0.582639,"adapt"
"fp03","98","c","mismatch",0,0.5376859,"adapt"
"fp03","99","c","mismatch",1,0.3629207,"adapt"
"fp03","100","i","mismatch",1,0.4430544,"adapt"
"fp03","101","i","match",1,0.4435173,"adapt"
"fp03","102","c","match",1,0.4717594,"adapt"
"fp03","103","c","mismatch",1,0.5462949,"adapt"
"fp03","104","c","match",1,0.4270575,"adapt"
"fp03","105","i","match",1,1.191315123,"baseline"
"fp03","106","i","match",1,0.961042207,"baseline"
"fp03","107","c","match",1,1.332862222,"baseline"
"fp03","108","c","match",1,1.207987579,"baseline"
"fp03","109","i","mismatch",1,1.024791433,"baseline"
"fp03","110","i","match",0,1.695848358,"baseline"
"fp03","111","c","match",1,0.875076507,"baseline"
"fp03","112","filler","mismatch",1,1.172029808,"baseline"
"fp03","113","c","mismatch",1,1.098449889,"baseline"
"fp03","114","c","match",1,0.852584776,"baseline"
"fp03","115","i","match",0,1.237270478,"baseline"
"fp03","116","c","mismatch",1,0.811051647,"baseline"
"fp03","117","i","mismatch",1,1.950887173,"baseline"
"fp03","118","c","match",1,1.515829554,"baseline"
"fp03","119","i","mismatch",1,1.397572391,"baseline"
"fp03","120","c","match",1,0.796439649,"baseline"
"fp03","121","filler","match",0,1.625126725,"baseline"
"fp03","122","i","match",1,1.771257655,"baseline"
"fp03","123","i","match",1,1.103834191,"baseline"
"fp03","124","c","match",1,0.682765184,"baseline"
"fp03","125","filler","match",1,1.836446596,"baseline"
"fp03","126","c","mismatch",1,1.931504442,"baseline"
"fp03","127","c","mismatch",1,1.199393463,"baseline"
"fp03","128","i","match",1,1.234628545,"baseline"
"fp03","129","c","mismatch",1,1.616030049,"baseline"
"fp03","130","i","mismatch",1,1.931287711,"baseline"
"fp03","131","c","mismatch",1,1.148951694,"baseline"
"fp03","132","i","mismatch",0,1.442643074,"baseline"
"fp03","133","i","match",1,1.499615481,"baseline"
"fp03","134","c","match",1,0.721299567,"baseline"
"fp03","135","i","match",1,1.504841576,"baseline"
"fp03","136","c","mismatch",1,0.565064575,"baseline"
"fp03","137","i","mismatch",1,1.637042797,"baseline"
"fp03","138","i","mismatch",1,0.658927755,"baseline"
"fp03","139","i","mismatch",0,NA,"baseline"
"fp03","140","c","mismatch",1,1.118852088,"baseline"
"fp03","141","i","mismatch",0,0.764043219,"baseline"
"fp03","142","i","mismatch",0,0.943910991,"baseline"
"fp03","143","i","mismatch",1,1.74851521,"baseline"
"fp03","144","c","mismatch",1,1.284947223,"baseline"
"fp03","145","c","match",1,0.945082624,"baseline"
"fp03","146","c","match",1,0.91995047,"baseline"
"fp03","147","i","match",1,0.915126121,"baseline"
"fp03","148","c","mismatch",1,0.942136739,"baseline"
"fp03","149","c","mismatch",1,0.517607959,"baseline"
"fp03","150","i","match",0,0.668532277,"baseline"
"fp03","151","c","match",1,1.008908876,"baseline"
"fp03","152","i","match",1,1.114435148,"baseline"
"fp03","153","c","match",1,0.701446748,"baseline"
"fp03","154","i","mismatch",1,1.37872809,"baseline"
"fp03","155","c","mismatch",1,1.198719859,"baseline"
"fp03","156","filler","mismatch",1,0.899008331,"baseline"
"fp04","1","i","match",1,0.717385392,"adapt"
"fp04","2","i","match",1,0.52129662,"adapt"
"fp04","3","c","match",1,0.686078502,"adapt"
"fp04","4","c","match",1,0.496367297,"adapt"
"fp04","5","i","mismatch",1,0.615174624,"adapt"
"fp04","6","i","match",1,0.639945157,"adapt"
"fp04","7","c","match",1,0.572263584,"adapt"
"fp04","8","filler","mismatch",1,1.160826307,"adapt"
"fp04","9","c","mismatch",1,0.591242307,"adapt"
"fp04","10","c","match",1,0.609522036,"adapt"
"fp04","11","i","match",1,0.59132475,"adapt"
"fp04","12","c","mismatch",1,0.66174841,"adapt"
"fp04","13","i","mismatch",1,0.741429021,"adapt"
"fp04","14","c","match",1,1.283806111,"adapt"
"fp04","15","i","mismatch",1,0.878952988,"adapt"
"fp04","16","c","match",1,0.69764929,"adapt"
"fp04","17","filler","match",1,1.138599616,"adapt"
"fp04","18","i","match",1,0.600929755,"adapt"
"fp04","19","i","match",1,0.587871477,"adapt"
"fp04","20","c","match",1,0.508580301,"adapt"
"fp04","21","filler","match",1,0.610326569,"adapt"
"fp04","22","c","mismatch",1,0.688137313,"adapt"
"fp04","23","c","mismatch",1,0.622742952,"adapt"
"fp04","24","i","match",1,0.97669808,"adapt"
"fp04","25","c","mismatch",1,0.538555924,"adapt"
"fp04","26","i","mismatch",1,0.578852229,"adapt"
"fp04","27","c","mismatch",1,0.774037665,"adapt"
"fp04","28","i","mismatch",1,1.323891659,"adapt"
"fp04","29","i","match",1,0.600119126,"adapt"
"fp04","30","c","match",1,0.554041277,"adapt"
"fp04","31","i","match",1,0.549418415,"adapt"
"fp04","32","c","mismatch",1,0.821747037,"adapt"
"fp04","33","i","mismatch",1,0.726246813,"adapt"
"fp04","34","i","mismatch",1,0.748352568,"adapt"
"fp04","35","i","mismatch",1,0.563561915,"adapt"
"fp04","36","c","mismatch",1,0.559338112,"adapt"
"fp04","37","i","mismatch",1,0.767182125,"adapt"
"fp04","38","i","mismatch",1,0.674495845,"adapt"
"fp04","39","i","mismatch",1,0.51278229,"adapt"
"fp04","40","c","mismatch",1,0.674504506,"adapt"
"fp04","41","c","match",1,0.508375318,"adapt"
"fp04","42","c","match",1,0.546283363,"adapt"
"fp04","43","i","match",1,0.525841851,"adapt"
"fp04","44","c","mismatch",1,0.618857259,"adapt"
"fp04","45","c","mismatch",1,0.514980644,"adapt"
"fp04","46","i","match",1,1.298789111,"adapt"
"fp04","47","c","match",1,0.495488341,"adapt"
"fp04","48","i","match",1,0.601847527,"adapt"
"fp04","49","c","match",1,0.527896492,"adapt"
"fp04","50","i","mismatch",1,0.897103439,"adapt"
"fp04","51","c","mismatch",1,0.494854786,"adapt"
"fp04","52","filler","mismatch",1,0.512579232,"adapt"
"fp04","53","c","match",1,0.861828093,"adapt"
"fp04","54","c","match",1,0.576971775,"adapt"
"fp04","55","i","mismatch",1,0.747086742,"adapt"
"fp04","56","i","mismatch",1,0.920669417,"adapt"
"fp04","57","i","match",1,0.483903759,"adapt"
"fp04","58","c","match",1,0.631069942,"adapt"
"fp04","59","i","match",1,0.65108609,"adapt"
"fp04","60","i","match",1,0.434666799,"adapt"
"fp04","61","filler","mismatch",1,0.474404613,"adapt"
"fp04","62","c","match",1,0.874615306,"adapt"
"fp04","63","i","match",1,1.082262997,"adapt"
"fp04","64","i","mismatch",1,0.632801871,"adapt"
"fp04","65","filler","match",0,1.159809413,"adapt"
"fp04","66","i","match",1,0.943077033,"adapt"
"fp04","67","c","match",1,0.928008062,"adapt"
"fp04","68","c","match",1,0.721038835,"adapt"
"fp04","69","i","match",1,0.549838967,"adapt"
"fp04","70","i","mismatch",1,1.483846659,"adapt"
"fp04","71","c","match",1,0.653603306,"adapt"
"fp04","72","c","mismatch",1,0.607938631,"adapt"
"fp04","73","i","mismatch",1,0.889603118,"adapt"
"fp04","74","i","mismatch",1,1.341686357,"adapt"
"fp04","75","i","match",1,0.946167174,"adapt"
"fp04","76","c","mismatch",1,0.549229471,"adapt"
"fp04","77","c","mismatch",1,0.725668434,"adapt"
"fp04","78","filler","match",1,1.312718646,"adapt"
"fp04","79","i","match",1,0.72936358,"adapt"
"fp04","80","i","mismatch",1,0.790269168,"adapt"
"fp04","81","i","mismatch",1,0.607463224,"adapt"
"fp04","82","c","mismatch",1,0.596328386,"adapt"
"fp04","83","c","mismatch",1,0.699933294,"adapt"
"fp04","84","i","match",1,0.621507281,"adapt"
"fp04","85","c","mismatch",1,0.566100303,"adapt"
"fp04","86","c","match",1,0.660787011,"adapt"
"fp04","87","i","mismatch",1,0.624386986,"adapt"
"fp04","88","filler","mismatch",1,0.521082655,"adapt"
"fp04","89","c","match",1,0.534368691,"adapt"
"fp04","90","c","mismatch",1,0.638455101,"adapt"
"fp04","91","i","match",1,0.722515097,"adapt"
"fp04","92","i","mismatch",1,0.880193151,"adapt"
"fp04","93","c","match",1,0.454510364,"adapt"
"fp04","94","c","mismatch",1,0.584869552,"adapt"
"fp04","95","i","match",1,0.617982793,"adapt"
"fp04","96","i","mismatch",1,0.623253324,"adapt"
"fp04","97","c","mismatch",1,1.270283334,"adapt"
"fp04","98","c","mismatch",1,0.727200833,"adapt"
"fp04","99","c","mismatch",1,0.752259754,"adapt"
"fp04","100","i","mismatch",1,0.684070696,"adapt"
"fp04","101","i","match",1,0.651009102,"adapt"
"fp04","102","c","match",1,0.754572628,"adapt"
"fp04","103","c","mismatch",1,0.609731189,"adapt"
"fp04","104","c","match",1,0.904154659,"adapt"
"fp04","105","i","match",1,0.744108442,"baseline"
"fp04","106","i","match",1,0.992645894,"baseline"
"fp04","107","c","match",1,1.006416961,"baseline"
"fp04","108","c","match",0,0.747612399,"baseline"
"fp04","109","i","mismatch",1,1.516962353,"baseline"
"fp04","110","i","match",1,1.35713246,"baseline"
"fp04","111","c","match",1,0.699475097,"baseline"
"fp04","112","filler","mismatch",1,0.755143837,"baseline"
"fp04","113","c","mismatch",1,1.070190385,"baseline"
"fp04","114","c","match",1,0.728393727,"baseline"
"fp04","115","i","match",1,0.810214309,"baseline"
"fp04","116","c","mismatch",1,0.724551661,"baseline"
"fp04","117","i","mismatch",1,1.599260266,"baseline"
"fp04","118","c","match",1,0.695785726,"baseline"
"fp04","119","i","mismatch",1,0.620755884,"baseline"
"fp04","120","c","match",0,0.956561523,"baseline"
"fp04","121","filler","match",1,1.246351225,"baseline"
"fp04","122","i","match",1,1.514447383,"baseline"
"fp04","123","i","match",1,0.939976192,"baseline"
"fp04","124","c","match",1,0.433826865,"baseline"
"fp04","125","filler","match",1,0.607129493,"baseline"
"fp04","126","c","mismatch",1,0.643069509,"baseline"
"fp04","127","c","mismatch",1,0.951041099,"baseline"
"fp04","128","i","match",1,0.575144139,"baseline"
"fp04","129","c","mismatch",1,0.629245834,"baseline"
"fp04","130","i","mismatch",0,0.626620834,"baseline"
"fp04","131","c","mismatch",1,1.349121125,"baseline"
"fp04","132","i","mismatch",1,0.950414602,"baseline"
"fp04","133","i","match",1,0.612127034,"baseline"
"fp04","134","c","match",1,0.514069816,"baseline"
"fp04","135","i","match",0,1.0310024,"baseline"
"fp04","136","c","mismatch",1,0.497120392,"baseline"
"fp04","137","i","mismatch",1,0.61234966,"baseline"
"fp04","138","i","mismatch",0,0.576665311,"baseline"
"fp04","139","i","mismatch",1,1.136789301,"baseline"
"fp04","140","c","mismatch",1,0.70680893,"baseline"
"fp04","141","i","mismatch",1,1.023003896,"baseline"
"fp04","142","i","mismatch",1,1.016878467,"baseline"
"fp04","143","i","mismatch",1,0.59474166,"baseline"
"fp04","144","c","mismatch",1,0.628137194,"baseline"
"fp04","145","c","match",1,0.580634088,"baseline"
"fp04","146","c","match",1,0.988211655,"baseline"
"fp04","147","i","match",1,0.539330833,"baseline"
"fp04","148","c","mismatch",0,0.929245545,"baseline"
"fp04","149","c","mismatch",1,0.65564372,"baseline"
"fp04","150","i","match",1,0.6404814,"baseline"
"fp04","151","c","match",1,0.491763249,"baseline"
"fp04","152","i","match",1,0.776710028,"baseline"
"fp04","153","c","match",1,0.524781858,"baseline"
"fp04","154","i","mismatch",1,0.564036246,"baseline"
"fp04","155","c","mismatch",1,0.647359715,"baseline"
"fp04","156","filler","mismatch",1,0.858762219,"baseline"
"fp04","157","c","match",1,1.006351199,"baseline"
"fp04","158","c","match",1,0.482150544,"baseline"
"fp04","159","i","mismatch",1,0.741680405,"baseline"
"fp04","160","i","mismatch",1,0.51328036,"baseline"
"fp04","161","i","match",1,0.428826116,"baseline"
"fp04","162","c","match",1,0.526004056,"baseline"
"fp04","163","i","match",1,0.480875737,"baseline"
"fp04","164","i","match",1,0.615484712,"baseline"
"fp04","165","filler","mismatch",1,0.495946632,"baseline"
"fp04","166","c","match",1,0.652319403,"baseline"
"fp04","167","i","match",1,0.56991114,"baseline"
"fp04","168","i","mismatch",1,0.779178164,"baseline"
"fp04","169","filler","match",0,0.679245305,"baseline"
"fp04","170","i","match",1,0.434270834,"baseline"
"fp04","171","c","match",1,0.411820554,"baseline"
"fp04","172","c","match",1,1.024027848,"baseline"
"fp04","173","i","match",1,0.592252994,"baseline"
"fp04","174","i","mismatch",1,0.963577777,"baseline"
"fp04","175","c","match",1,0.605752996,"baseline"
"fp04","176","c","mismatch",0,1.904882412,"baseline"
"fp04","177","i","mismatch",1,0.468005119,"baseline"
"fp04","178","i","mismatch",1,0.618163284,"baseline"
"fp04","179","i","match",1,0.783762852,"baseline"
"fp04","180","c","mismatch",1,0.530445994,"baseline"
"fp04","181","c","mismatch",1,0.733827218,"baseline"
"fp04","182","filler","match",1,0.52175427,"baseline"
"fp04","183","i","match",1,0.427680906,"baseline"
"fp04","184","i","mismatch",1,0.454651718,"baseline"
"fp04","185","i","mismatch",1,0.502747638,"baseline"
"fp04","186","c","mismatch",1,0.643017542,"baseline"
"fp04","187","c","mismatch",1,0.613267753,"baseline"
"fp04","188","i","match",1,0.46154094,"baseline"
"fp04","189","c","mismatch",1,0.621510055,"baseline"
"fp04","190","c","match",1,0.590155368,"baseline"
"fp04","191","i","mismatch",1,1.223518887,"baseline"
"fp04","192","filler","mismatch",1,0.455001376,"baseline"
"fp04","193","c","match",1,0.71214843,"baseline"
"fp04","194","c","mismatch",1,0.517589492,"baseline"
"fp04","195","i","match",1,0.494861731,"baseline"
"fp04","196","i","mismatch",1,0.556887828,"baseline"
"fp04","197","c","match",1,0.71797264,"baseline"
"fp04","198","c","mismatch",1,0.611610888,"baseline"
"fp04","199","i","match",1,0.7092097,"baseline"
"fp04","200","i","mismatch",1,0.727168962,"baseline"
"fp04","201","c","mismatch",1,0.884272166,"baseline"
"fp04","202","c","mismatch",1,0.420941492,"baseline"
"fp04","203","c","mismatch",1,0.906594452,"baseline"
"fp04","204","i","mismatch",0,0.561579659,"baseline"
"fp04","205","i","match",1,0.641786041,"baseline"
"fp04","206","c","match",1,0.624918096,"baseline"
"fp04","207","c","mismatch",1,0.673300479,"baseline"
"fp04","208","c","match",1,0.356858829,"baseline"
"fp05","1","i","match",1,0.4143737,"adapt"
"fp05","2","i","match",1,0.7151093,"adapt"
"fp05","3","c","match",1,0.5436317,"adapt"
"fp05","4","c","match",1,0.411998,"adapt"
"fp05","5","i","mismatch",1,0.5363502,"adapt"
"fp05","6","i","match",1,0.3145777,"adapt"
"fp05","7","c","match",1,0.3721096,"adapt"
"fp05","8","filler","mismatch",1,0.379853,"adapt"
"fp05","9","c","mismatch",1,0.4222256,"adapt"
"fp05","10","c","match",1,0.3793679,"adapt"
"fp05","11","i","match",1,0.3047719,"adapt"
"fp05","12","c","mismatch",1,0.4214482,"adapt"
"fp05","13","i","mismatch",1,0.4424876,"adapt"
"fp05","14","c","match",1,0.5102868,"adapt"
"fp05","15","i","mismatch",1,0.4709485,"adapt"
"fp05","16","c","match",1,0.4408429,"adapt"
"fp05","17","filler","match",0,0.3862898,"adapt"
"fp05","18","i","match",1,0.5043139,"adapt"
"fp05","19","i","match",1,0.3868502,"adapt"
"fp05","20","c","match",1,0.3827804,"adapt"
"fp05","21","filler","match",1,0.4489072,"adapt"
"fp05","22","c","mismatch",1,0.3983916,"adapt"
"fp05","23","c","mismatch",1,0.4330496,"adapt"
"fp05","24","i","match",1,0.5893137,"adapt"
"fp05","25","c","mismatch",1,0.4844662,"adapt"
"fp05","26","i","mismatch",1,0.4186232,"adapt"
"fp05","27","c","mismatch",1,0.3677809,"adapt"
"fp05","28","i","mismatch",1,0.4042023,"adapt"
"fp05","29","i","match",1,0.4586269,"adapt"
"fp05","30","c","match",1,0.4443666,"adapt"
"fp05","31","i","match",1,0.4695344,"adapt"
"fp05","32","c","mismatch",1,0.3499436,"adapt"
"fp05","33","i","mismatch",1,0.5477068,"adapt"
"fp05","34","i","mismatch",1,0.4101033,"adapt"
"fp05","35","i","mismatch",1,0.3596556,"adapt"
"fp05","36","c","mismatch",1,0.3939334,"adapt"
"fp05","37","i","mismatch",1,0.3993963,"adapt"
"fp05","38","i","mismatch",1,0.3921265,"adapt"
"fp05","39","i","mismatch",1,0.3453567,"adapt"
"fp05","40","c","mismatch",1,0.4738205,"adapt"
"fp05","41","c","match",1,0.5454824,"adapt"
"fp05","42","c","match",1,0.3685948,"adapt"
"fp05","43","i","match",1,0.3982817,"adapt"
"fp05","44","c","mismatch",1,0.3666375,"adapt"
"fp05","45","c","mismatch",1,0.3869672,"adapt"
"fp05","46","i","match",1,0.4924206,"adapt"
"fp05","47","c","match",1,0.5952613,"adapt"
"fp05","48","i","match",1,0.5724409,"adapt"
"fp05","49","c","match",1,0.4682339,"adapt"
"fp05","50","i","mismatch",1,0.3231675,"adapt"
"fp05","51","c","mismatch",1,0.4423327,"adapt"
"fp05","52","filler","mismatch",1,0.3734983,"adapt"
"fp05","53","c","match",1,0.6307323,"adapt"
"fp05","54","c","match",1,0.5174859,"adapt"
"fp05","55","i","mismatch",1,0.4008629,"adapt"
"fp05","56","i","mismatch",1,0.466474,"adapt"
"fp05","57","i","match",1,0.4866189,"adapt"
"fp05","58","c","match",1,0.4345233,"adapt"
"fp05","59","i","match",1,0.532482,"adapt"
"fp05","60","i","match",1,0.5880866,"adapt"
"fp05","61","filler","mismatch",1,0.399299,"adapt"
"fp05","62","c","match",1,0.4130615,"adapt"
"fp05","63","i","match",1,0.4572198,"adapt"
"fp05","64","i","mismatch",1,0.4794074,"adapt"
"fp05","65","filler","match",1,0.3378042,"adapt"
"fp05","66","i","match",1,0.3955659,"adapt"
"fp05","67","c","match",1,0.3955128,"adapt"
"fp05","68","c","match",1,0.4681087,"adapt"
"fp05","69","i","match",1,0.4103184,"adapt"
"fp05","70","i","mismatch",1,0.6329973,"adapt"
"fp05","71","c","match",1,0.3633441,"adapt"
"fp05","72","c","mismatch",1,0.4472183,"adapt"
"fp05","73","i","mismatch",1,0.5535388,"adapt"
"fp05","74","i","mismatch",1,0.5235497,"adapt"
"fp05","75","i","match",1,0.4933571,"adapt"
"fp05","76","c","mismatch",1,0.5029132,"adapt"
"fp05","77","c","mismatch",1,0.6327501,"adapt"
"fp05","78","filler","match",1,0.3988406,"adapt"
"fp05","79","i","match",1,0.5675019,"adapt"
"fp05","80","i","mismatch",1,0.5904099,"adapt"
"fp05","81","i","mismatch",1,0.5723706,"adapt"
"fp05","82","c","mismatch",0,0.6575663,"adapt"
"fp05","83","c","mismatch",1,0.4456552,"adapt"
"fp05","84","i","match",1,0.4179239,"adapt"
"fp05","85","c","mismatch",1,0.5548598,"adapt"
"fp05","86","c","match",1,0.6626088,"adapt"
"fp05","87","i","mismatch",1,0.561719,"adapt"
"fp05","88","filler","mismatch",1,0.3618286,"adapt"
"fp05","89","c","match",1,0.4032327,"adapt"
"fp05","90","c","mismatch",1,0.4218194,"adapt"
"fp05","91","i","match",1,0.3318009,"adapt"
"fp05","92","i","mismatch",1,0.4483307,"adapt"
"fp05","93","c","match",1,0.6396229,"adapt"
"fp05","94","c","mismatch",1,0.4382022,"adapt"
"fp05","95","i","match",1,0.573267,"adapt"
"fp05","96","i","mismatch",1,0.5471434,"adapt"
"fp05","97","c","mismatch",1,0.4087184,"adapt"
"fp05","98","c","mismatch",1,0.6078475,"adapt"
"fp05","99","c","mismatch",1,0.398462,"adapt"
"fp05","100","i","mismatch",1,0.412734,"adapt"
"fp05","101","i","match",1,0.558532,"adapt"
"fp05","102","c","match",1,0.5354796,"adapt"
"fp05","103","c","mismatch",1,0.4801672,"adapt"
"fp05","104","c","match",1,0.5849887,"adapt"
"fp05","105","i","match",1,0.393483,"baseline"
"fp05","106","i","match",1,0.4382542,"baseline"
"fp05","107","c","match",1,0.4373032,"baseline"
"fp05","108","c","match",1,0.4407184,"baseline"
"fp05","109","i","mismatch",1,0.5532948,"baseline"
"fp05","110","i","match",1,0.3857137,"baseline"
"fp05","111","c","match",1,0.4829569,"baseline"
"fp05","112","filler","mismatch",1,0.6118809,"baseline"
"fp05","113","c","mismatch",1,0.5012577,"baseline"
"fp05","114","c","match",1,0.5303056,"baseline"
"fp05","115","i","match",1,0.628255,"baseline"
"fp05","116","c","mismatch",1,0.4051307,"baseline"
"fp05","117","i","mismatch",1,0.4874547,"baseline"
"fp05","118","c","match",1,0.516874,"baseline"
"fp05","119","i","mismatch",1,0.5233193,"baseline"
"fp05","120","c","match",1,0.4588336,"baseline"
"fp05","121","filler","match",1,0.3959868,"baseline"
"fp05","122","i","match",1,0.4435846,"baseline"
"fp05","123","i","match",1,0.4030256,"baseline"
"fp05","124","c","match",1,0.4630069,"baseline"
"fp05","125","filler","match",1,0.4709335,"baseline"
"fp05","126","c","mismatch",1,0.4321043,"baseline"
"fp05","127","c","mismatch",1,0.7607952,"baseline"
"fp05","128","i","match",1,0.4097348,"baseline"
"fp05","129","c","mismatch",1,0.3550071,"baseline"
"fp05","130","i","mismatch",1,0.6932169,"baseline"
"fp05","131","c","mismatch",1,0.3962764,"baseline"
"fp05","132","i","mismatch",1,0.660689,"baseline"
"fp05","133","i","match",1,0.5359257,"baseline"
"fp05","134","c","match",1,0.5787461,"baseline"
"fp05","135","i","match",1,0.4803814,"baseline"
"fp05","136","c","mismatch",1,0.408506,"baseline"
"fp05","137","i","mismatch",1,0.5319696,"baseline"
"fp05","138","i","mismatch",1,0.4200089,"baseline"
"fp05","139","i","mismatch",1,0.508696,"baseline"
"fp05","140","c","mismatch",1,0.4655752,"baseline"
"fp05","141","i","mismatch",1,0.4659618,"baseline"
"fp05","142","i","mismatch",1,0.4517233,"baseline"
"fp05","143","i","mismatch",1,0.4076641,"baseline"
"fp05","144","c","mismatch",1,0.4621215,"baseline"
"fp05","145","c","match",1,0.6960447,"baseline"
"fp05","146","c","match",1,0.4717661,"baseline"
"fp05","147","i","match",1,0.4324475,"baseline"
"fp05","148","c","mismatch",1,0.5658703,"baseline"
"fp05","149","c","mismatch",1,0.3376364,"baseline"
"fp05","150","i","match",1,0.5146694,"baseline"
"fp05","151","c","match",1,0.4749392,"baseline"
"fp05","152","i","match",1,0.3587478,"baseline"
"fp05","153","c","match",1,0.4802884,"baseline"
"fp05","154","i","mismatch",1,0.606449,"baseline"
"fp05","155","c","mismatch",1,0.4564299,"baseline"
"fp05","156","filler","mismatch",1,0.4937017,"baseline"
"fp05","157","c","match",1,0.5086199,"baseline"
"fp05","158","c","match",1,0.3760653,"baseline"
"fp05","159","i","mismatch",1,0.4036255,"baseline"
"fp05","160","i","mismatch",1,0.4602753,"baseline"
"fp05","161","i","match",1,0.4104066,"baseline"
"fp05","162","c","match",1,0.5961182,"baseline"
"fp05","163","i","match",1,0.5221807,"baseline"
"fp05","164","i","match",1,0.4175914,"baseline"
"fp05","165","filler","mismatch",1,0.5521519,"baseline"
"fp05","166","c","match",1,0.559052,"baseline"
"fp05","167","i","match",1,0.7096241,"baseline"
"fp05","168","i","mismatch",1,0.4353453,"baseline"
"fp05","169","filler","match",1,0.5590433,"baseline"
"fp05","170","i","match",1,0.333084,"baseline"
"fp05","171","c","match",1,0.5277719,"baseline"
"fp05","172","c","match",1,0.4074212,"baseline"
"fp05","173","i","match",1,0.5053043,"baseline"
"fp05","174","i","mismatch",1,0.4563343,"baseline"
"fp05","175","c","match",1,0.4476027,"baseline"
"fp05","176","c","mismatch",1,0.4263282,"baseline"
"fp05","177","i","mismatch",1,0.3750781,"baseline"
"fp05","178","i","mismatch",1,0.4085714,"baseline"
"fp05","179","i","match",1,0.5237923,"baseline"
"fp05","180","c","mismatch",1,0.536804,"baseline"
"fp05","181","c","mismatch",1,0.4057302,"baseline"
"fp05","182","filler","match",1,0.4972786,"baseline"
"fp05","183","i","match",1,0.4002018,"baseline"
"fp05","184","i","mismatch",1,0.7656651,"baseline"
"fp05","185","i","mismatch",1,0.2836146,"baseline"
"fp05","186","c","mismatch",1,0.3905725,"baseline"
"fp05","187","c","mismatch",1,0.3604373,"baseline"
"fp05","188","i","match",1,0.5163516,"baseline"
"fp05","189","c","mismatch",1,0.3963404,"baseline"
"fp05","190","c","match",1,0.4886841,"baseline"
"fp05","191","i","mismatch",1,0.4218032,"baseline"
"fp05","192","filler","mismatch",1,0.5934301,"baseline"
"fp05","193","c","match",1,0.5271733,"baseline"
"fp05","194","c","mismatch",1,0.6553411,"baseline"
"fp05","195","i","match",1,0.4321804,"baseline"
"fp05","196","i","mismatch",1,0.3083214,"baseline"
"fp05","197","c","match",1,0.3736477,"baseline"
"fp05","198","c","mismatch",1,0.5130646,"baseline"
"fp05","199","i","match",1,0.5583493,"baseline"
"fp05","200","i","mismatch",1,0.5143847,"baseline"
"fp05","201","c","mismatch",1,0.4877037,"baseline"
"fp05","202","c","mismatch",1,0.5480248,"baseline"
"fp05","203","c","mismatch",1,0.487028,"baseline"
"fp05","204","i","mismatch",1,0.3709268,"baseline"
"fp05","205","i","match",1,0.4003909,"baseline"
"fp05","206","c","match",1,0.5040072,"baseline"
"fp05","207","c","mismatch",1,0.4323994,"baseline"
"fp05","208","c","match",1,0.7154817,"baseline"
"fp06","1","i","match",1,0.573842,"adapt"
"fp06","2","i","match",1,0.511657,"adapt"
"fp06","3","c","match",1,0.5011713,"adapt"
"fp06","4","c","match",1,0.4292508,"adapt"
"fp06","5","i","mismatch",1,0.5485023,"adapt"
"fp06","6","i","match",1,0.3931529,"adapt"
"fp06","7","c","match",1,0.4536582,"adapt"
"fp06","8","filler","mismatch",1,0.5901696,"adapt"
"fp06","9","c","mismatch",1,0.6871162,"adapt"
"fp06","10","c","match",1,0.4238524,"adapt"
"fp06","11","i","match",1,0.4147209,"adapt"
"fp06","12","c","mismatch",1,0.4866938,"adapt"
"fp06","13","i","mismatch",1,0.7239591,"adapt"
"fp06","14","c","match",1,0.5925611,"adapt"
"fp06","15","i","mismatch",0,0.5270639,"adapt"
"fp06","16","c","match",1,0.5377609,"adapt"
"fp06","17","filler","match",1,0.6439512,"adapt"
"fp06","18","i","match",1,0.5097263,"adapt"
"fp06","19","i","match",1,0.4123582,"adapt"
"fp06","20","c","match",1,0.4787988,"adapt"
"fp06","21","filler","match",1,0.6321098,"adapt"
"fp06","22","c","mismatch",1,0.4652255,"adapt"
"fp06","23","c","mismatch",1,0.5450581,"adapt"
"fp06","24","i","match",1,0.6152958,"adapt"
"fp06","25","c","mismatch",1,0.5220355,"adapt"
"fp06","26","i","mismatch",1,0.591467,"adapt"
"fp06","27","c","mismatch",1,0.5001987,"adapt"
"fp06","28","i","mismatch",1,0.4981937,"adapt"
"fp06","29","i","match",1,0.4146958,"adapt"
"fp06","30","c","match",1,0.4528302,"adapt"
"fp06","31","i","match",1,0.5349369,"adapt"
"fp06","32","c","mismatch",1,0.6757498,"adapt"
"fp06","33","i","mismatch",1,0.8148411,"adapt"
"fp06","34","i","mismatch",1,0.4163175,"adapt"
"fp06","35","i","mismatch",1,0.538537,"adapt"
"fp06","36","c","mismatch",1,0.5884653,"adapt"
"fp06","37","i","mismatch",1,0.5155135,"adapt"
"fp06","38","i","mismatch",1,0.4360278,"adapt"
"fp06","39","i","mismatch",1,0.3711029,"adapt"
"fp06","40","c","mismatch",1,0.4803095,"adapt"
"fp06","41","c","match",1,0.5717545,"adapt"
"fp06","42","c","match",1,0.5368417,"adapt"
"fp06","43","i","match",1,0.4102036,"adapt"
"fp06","44","c","mismatch",1,0.4609289,"adapt"
"fp06","45","c","mismatch",1,0.4540822,"adapt"
"fp06","46","i","match",1,0.4437972,"adapt"
"fp06","47","c","match",1,0.469993,"adapt"
"fp06","48","i","match",1,0.5013492,"adapt"
"fp06","49","c","match",1,0.4611855,"adapt"
"fp06","50","i","mismatch",1,0.5257593,"adapt"
"fp06","51","c","mismatch",1,0.4588356,"adapt"
"fp06","52","filler","mismatch",1,0.6782877,"adapt"
"fp06","53","c","match",1,0.5300805,"adapt"
"fp06","54","c","match",1,0.540803,"adapt"
"fp06","55","i","mismatch",1,0.4589466,"adapt"
"fp06","56","i","mismatch",1,0.9391028,"adapt"
"fp06","57","i","match",1,0.8226028,"adapt"
"fp06","58","c","match",1,0.4396203,"adapt"
"fp06","59","i","match",1,0.471683,"adapt"
"fp06","60","i","match",1,0.7257095,"adapt"
"fp06","61","filler","mismatch",1,0.5280126,"adapt"
"fp06","62","c","match",1,0.7420687,"adapt"
"fp06","63","i","match",1,1.2772086,"adapt"
"fp06","64","i","mismatch",1,0.8672056,"adapt"
"fp06","65","filler","match",0,0.5035111,"adapt"
"fp06","66","i","match",1,0.6069298,"adapt"
"fp06","67","c","match",1,0.4565437,"adapt"
"fp06","68","c","match",1,0.7056731,"adapt"
"fp06","69","i","match",0,NA,"adapt"
"fp06","70","i","mismatch",1,0.6381702,"adapt"
"fp06","71","c","match",1,0.7577798,"adapt"
"fp06","72","c","mismatch",1,0.6465231,"adapt"
"fp06","73","i","mismatch",1,0.4582996,"adapt"
"fp06","74","i","mismatch",1,0.6246966,"adapt"
"fp06","75","i","match",0,1.4695084,"adapt"
"fp06","76","c","mismatch",1,0.4313512,"adapt"
"fp06","77","c","mismatch",1,0.6820318,"adapt"
"fp06","78","filler","match",1,0.627327,"adapt"
"fp06","79","i","match",1,0.9900443,"adapt"
"fp06","80","i","mismatch",1,0.4347066,"adapt"
"fp06","81","i","mismatch",1,0.7463448,"adapt"
"fp06","82","c","mismatch",1,1.4734991,"adapt"
"fp06","83","c","mismatch",1,0.697484,"adapt"
"fp06","84","i","match",1,0.6104732,"adapt"
"fp06","85","c","mismatch",0,NA,"adapt"
"fp06","86","c","match",1,1.3554958,"adapt"
"fp06","87","i","mismatch",1,0.5668723,"adapt"
"fp06","88","filler","mismatch",1,0.5238166,"adapt"
"fp06","89","c","match",0,NA,"adapt"
"fp06","90","c","mismatch",0,NA,"adapt"
"fp06","91","i","match",1,0.5860979,"adapt"
"fp06","92","i","mismatch",1,0.4372749,"adapt"
"fp06","93","c","match",1,0.4849682,"adapt"
"fp06","94","c","mismatch",1,0.7537176,"adapt"
"fp06","95","i","match",0,NA,"adapt"
"fp06","96","i","mismatch",1,1.0508631,"adapt"
"fp06","97","c","mismatch",1,0.6222611,"adapt"
"fp06","98","c","mismatch",1,0.8591897,"adapt"
"fp06","99","c","mismatch",1,0.5864244,"adapt"
"fp06","100","i","mismatch",1,0.3819929,"adapt"
"fp06","101","i","match",1,0.5505651,"adapt"
"fp06","102","c","match",1,0.4665994,"adapt"
"fp06","103","c","mismatch",1,0.5137845,"adapt"
"fp06","104","c","match",1,0.5090127,"adapt"
"fp06","105","i","match",1,0.4972351,"baseline"
"fp06","106","i","match",1,0.7781721,"baseline"
"fp06","107","c","match",1,0.8916592,"baseline"
"fp06","108","c","match",1,0.5250009,"baseline"
"fp06","109","i","mismatch",1,0.4732828,"baseline"
"fp06","110","i","match",1,0.5586325,"baseline"
"fp06","111","c","match",1,0.4538057,"baseline"
"fp06","112","filler","mismatch",1,0.644528,"baseline"
"fp06","113","c","mismatch",1,0.5321909,"baseline"
"fp06","114","c","match",1,0.4581359,"baseline"
"fp06","115","i","match",1,0.4439911,"baseline"
"fp06","116","c","mismatch",1,0.5177998,"baseline"
"fp06","117","i","mismatch",1,0.5606874,"baseline"
"fp06","118","c","match",1,0.5100017,"baseline"
"fp06","119","i","mismatch",1,0.4477268,"baseline"
"fp06","120","c","match",1,0.6497722,"baseline"
"fp06","121","filler","match",1,0.6899949,"baseline"
"fp06","122","i","match",1,0.6122729,"baseline"
"fp06","123","i","match",1,0.436849,"baseline"
"fp06","124","c","match",1,0.4232973,"baseline"
"fp06","125","filler","match",1,0.937653,"baseline"
"fp06","126","c","mismatch",1,0.5066509,"baseline"
"fp06","127","c","mismatch",1,0.4493012,"baseline"
"fp06","128","i","match",1,1.4926577,"baseline"
"fp06","129","c","mismatch",1,0.5630147,"baseline"
"fp06","130","i","mismatch",1,0.5987778,"baseline"
"fp06","131","c","mismatch",1,0.5310457,"baseline"
"fp06","132","i","mismatch",1,1.0933855,"baseline"
"fp06","133","i","match",1,0.8259072,"baseline"
"fp06","134","c","match",1,0.5775143,"baseline"
"fp06","135","i","match",1,0.4358487,"baseline"
"fp06","136","c","mismatch",1,0.5930531,"baseline"
"fp06","137","i","mismatch",1,0.466514,"baseline"
"fp06","138","i","mismatch",0,0.5399553,"baseline"
"fp06","139","i","mismatch",1,0.5067483,"baseline"
"fp06","140","c","mismatch",1,0.6084942,"baseline"
"fp06","141","i","mismatch",1,0.4584081,"baseline"
"fp06","142","i","mismatch",1,0.5233647,"baseline"
"fp06","143","i","mismatch",1,0.6988021,"baseline"
"fp06","144","c","mismatch",1,0.7290887,"baseline"
"fp06","145","c","match",1,0.5857933,"baseline"
"fp06","146","c","match",1,0.6681242,"baseline"
"fp06","147","i","match",1,0.4282475,"baseline"
"fp06","148","c","mismatch",1,0.6753775,"baseline"
"fp06","149","c","mismatch",1,0.5912368,"baseline"
"fp06","150","i","match",1,0.5959186,"baseline"
"fp06","151","c","match",1,0.5462975,"baseline"
"fp06","152","i","match",1,0.5541522,"baseline"
"fp06","153","c","match",1,0.422919,"baseline"
"fp06","154","i","mismatch",1,0.5323289,"baseline"
"fp06","155","c","mismatch",1,0.6106349,"baseline"
"fp06","156","filler","mismatch",1,0.5707195,"baseline"
"fp06","157","c","match",1,0.5154403,"baseline"
"fp06","158","c","match",1,0.393077,"baseline"
"fp06","159","i","mismatch",1,0.4916135,"baseline"
"fp06","160","i","mismatch",1,0.5038401,"baseline"
"fp06","161","i","match",1,0.4665669,"baseline"
"fp06","162","c","match",1,0.5962843,"baseline"
"fp06","163","i","match",1,0.5771083,"baseline"
"fp06","164","i","match",1,0.5364622,"baseline"
"fp06","165","filler","mismatch",1,1.4563216,"baseline"
"fp06","166","c","match",1,0.4723518,"baseline"
"fp06","167","i","match",1,0.5221717,"baseline"
"fp06","168","i","mismatch",1,0.6379461,"baseline"
"fp06","169","filler","match",0,1.1468486,"baseline"
"fp06","170","i","match",1,0.4315761,"baseline"
"fp06","171","c","match",1,0.514257,"baseline"
"fp06","172","c","match",1,0.4980282,"baseline"
"fp06","173","i","match",1,0.7064135,"baseline"
"fp06","174","i","mismatch",1,0.5120201,"baseline"
"fp06","175","c","match",1,0.6858788,"baseline"
"fp06","176","c","mismatch",1,0.6660894,"baseline"
"fp06","177","i","mismatch",1,0.5456043,"baseline"
"fp06","178","i","mismatch",1,0.5637172,"baseline"
"fp06","179","i","match",1,0.5488718,"baseline"
"fp06","180","c","mismatch",1,0.4936973,"baseline"
"fp06","181","c","mismatch",1,0.4835076,"baseline"
"fp06","182","filler","match",0,0.6189568,"baseline"
"fp06","183","i","match",1,0.5622067,"baseline"
"fp06","184","i","mismatch",1,0.6159885,"baseline"
"fp06","185","i","mismatch",1,0.6841517,"baseline"
"fp06","186","c","mismatch",1,0.4270866,"baseline"
"fp06","187","c","mismatch",1,0.5579714,"baseline"
"fp06","188","i","match",1,0.4766273,"baseline"
"fp06","189","c","mismatch",1,0.5132855,"baseline"
"fp06","190","c","match",1,0.5252202,"baseline"
"fp06","191","i","mismatch",1,1.0235133,"baseline"
"fp06","192","filler","mismatch",1,0.4442019,"baseline"
"fp06","193","c","match",1,0.4964429,"baseline"
"fp06","194","c","mismatch",1,0.5450078,"baseline"
"fp06","195","i","match",1,0.593071,"baseline"
"fp06","196","i","mismatch",1,0.5466378,"baseline"
"fp06","197","c","match",1,0.4622921,"baseline"
"fp06","198","c","mismatch",1,0.5969202,"baseline"
"fp06","199","i","match",1,0.5565379,"baseline"
"fp06","200","i","mismatch",1,0.7511992,"baseline"
"fp06","201","c","mismatch",1,0.5783129,"baseline"
"fp06","202","c","mismatch",1,0.6561209,"baseline"
"fp06","203","c","mismatch",1,0.705262,"baseline"
"fp06","204","i","mismatch",1,0.6650757,"baseline"
"fp06","205","i","match",1,0.3800488,"baseline"
"fp06","206","c","match",1,0.5982798,"baseline"
"fp06","207","c","mismatch",1,0.6671631,"baseline"
"fp06","208","c","match",1,0.8599397,"baseline"
"fp07","1","i","match",1,0.54187,"adapt"
"fp07","2","i","match",1,0.4853246,"adapt"
"fp07","3","c","match",1,0.551035,"adapt"
"fp07","4","c","match",1,0.4817545,"adapt"
"fp07","5","i","mismatch",1,0.4619405,"adapt"
"fp07","6","i","match",1,0.5864011,"adapt"
"fp07","7","c","match",1,0.5687234,"adapt"
"fp07","8","filler","mismatch",1,0.4586863,"adapt"
"fp07","9","c","mismatch",1,0.7660266,"adapt"
"fp07","10","c","match",1,0.5495684,"adapt"
"fp07","11","i","match",1,0.5181412,"adapt"
"fp07","12","c","mismatch",1,0.613049,"adapt"
"fp07","13","i","mismatch",1,0.632349,"adapt"
"fp07","14","c","match",1,0.5038859,"adapt"
"fp07","15","i","mismatch",1,0.6533746,"adapt"
"fp07","16","c","match",1,0.6509252,"adapt"
"fp07","17","filler","match",0,0.6531868,"adapt"
"fp07","18","i","match",1,0.3757992,"adapt"
"fp07","19","i","match",1,0.5925355,"adapt"
"fp07","20","c","match",1,0.6351255,"adapt"
"fp07","21","filler","match",1,0.844596,"adapt"
"fp07","22","c","mismatch",1,0.6412054,"adapt"
"fp07","23","c","mismatch",1,0.6828562,"adapt"
"fp07","24","i","match",1,0.6279935,"adapt"
"fp07","25","c","mismatch",1,0.7757362,"adapt"
"fp07","26","i","mismatch",1,0.938196,"adapt"
"fp07","27","c","mismatch",1,0.642865,"adapt"
"fp07","28","i","mismatch",1,0.7450832,"adapt"
"fp07","29","i","match",1,0.6668732,"adapt"
"fp07","30","c","match",1,0.6035571,"adapt"
"fp07","31","i","match",1,0.5360991,"adapt"
"fp07","32","c","mismatch",1,0.5155905,"adapt"
"fp07","33","i","mismatch",1,0.5469912,"adapt"
"fp07","34","i","mismatch",1,0.584246,"adapt"
"fp07","35","i","mismatch",1,0.5495949,"adapt"
"fp07","36","c","mismatch",1,0.6979134,"adapt"
"fp07","37","i","mismatch",1,0.5337978,"adapt"
"fp07","38","i","mismatch",1,0.6810567,"adapt"
"fp07","39","i","mismatch",1,0.4358424,"adapt"
"fp07","40","c","mismatch",1,0.5515097,"adapt"
"fp07","41","c","match",1,0.7479163,"adapt"
"fp07","42","c","match",1,0.7589689,"adapt"
"fp07","43","i","match",1,0.8678281,"adapt"
"fp07","44","c","mismatch",1,0.6380089,"adapt"
"fp07","45","c","mismatch",1,0.7992011,"adapt"
"fp07","46","i","match",1,0.8919356,"adapt"
"fp07","47","c","match",1,0.5717547,"adapt"
"fp07","48","i","match",1,0.4828357,"adapt"
"fp07","49","c","match",1,0.6523009,"adapt"
"fp07","50","i","mismatch",1,0.6972027,"adapt"
"fp07","51","c","mismatch",1,0.5718806,"adapt"
"fp07","52","filler","mismatch",1,0.9747684,"adapt"
"fp07","53","c","match",1,1.2440733,"adapt"
"fp07","54","c","match",1,0.760687,"adapt"
"fp07","55","i","mismatch",1,0.7355753,"adapt"
"fp07","56","i","mismatch",0,0.9449801,"adapt"
"fp07","57","i","match",1,1.6006193,"adapt"
"fp07","58","c","match",1,0.6439829,"adapt"
"fp07","59","i","match",1,1.0101872,"adapt"
"fp07","60","i","match",1,0.3364089,"adapt"
"fp07","61","filler","mismatch",1,0.9130603,"adapt"
"fp07","62","c","match",1,0.507438,"adapt"
"fp07","63","i","match",1,0.7974298,"adapt"
"fp07","64","i","mismatch",1,0.9760052,"adapt"
"fp07","65","filler","match",1,0.8591167,"adapt"
"fp07","66","i","match",1,0.7760784,"adapt"
"fp07","67","c","match",1,0.6737175,"adapt"
"fp07","68","c","match",1,0.6110825,"adapt"
"fp07","69","i","match",1,0.7612117,"adapt"
"fp07","70","i","mismatch",1,0.4796173,"adapt"
"fp07","71","c","match",1,0.506194,"adapt"
"fp07","72","c","mismatch",1,0.5485524,"adapt"
"fp07","73","i","mismatch",1,0.8963027,"adapt"
"fp07","74","i","mismatch",1,0.6217588,"adapt"
"fp07","75","i","match",1,0.6036937,"adapt"
"fp07","76","c","mismatch",1,0.5657511,"adapt"
"fp07","77","c","mismatch",1,0.7208743,"adapt"
"fp07","78","filler","match",0,0.5602799,"adapt"
"fp07","79","i","match",1,0.5096878,"adapt"
"fp07","80","i","mismatch",1,0.4414205,"adapt"
"fp07","81","i","mismatch",1,1.3642021,"adapt"
"fp07","82","c","mismatch",1,1.3606099,"adapt"
"fp07","83","c","mismatch",1,0.7426462,"adapt"
"fp07","84","i","match",1,0.5183316,"adapt"
"fp07","85","c","mismatch",1,0.7863339,"adapt"
"fp07","86","c","match",0,0.8807201,"adapt"
"fp07","87","i","mismatch",1,0.6230241,"adapt"
"fp07","88","filler","mismatch",1,0.6897841,"adapt"
"fp07","89","c","match",1,0.4836565,"adapt"
"fp07","90","c","mismatch",1,0.4681906,"adapt"
"fp07","91","i","match",1,1.1169704,"adapt"
"fp07","92","i","mismatch",1,0.5555764,"adapt"
"fp07","93","c","match",1,0.5955014,"adapt"
"fp07","94","c","mismatch",1,0.5219137,"adapt"
"fp07","95","i","match",1,0.5631229,"adapt"
"fp07","96","i","mismatch",1,0.6190606,"adapt"
"fp07","97","c","mismatch",1,0.6788884,"adapt"
"fp07","98","c","mismatch",1,0.587171,"adapt"
"fp07","99","c","mismatch",1,0.7347286,"adapt"
"fp07","100","i","mismatch",1,0.5877506,"adapt"
"fp07","101","i","match",1,0.8173382,"adapt"
"fp07","102","c","match",1,0.7257014,"adapt"
"fp07","103","c","mismatch",1,0.6265653,"adapt"
"fp07","104","c","match",1,0.5564034,"adapt"
"fp07","105","i","match",1,0.574866,"baseline"
"fp07","106","i","match",1,0.6596515,"baseline"
"fp07","107","c","match",1,0.5415847,"baseline"
"fp07","108","c","match",1,0.6128061,"baseline"
"fp07","109","i","mismatch",0,0.5738872,"baseline"
"fp07","110","i","match",1,0.5574063,"baseline"
"fp07","111","c","match",1,0.4311395,"baseline"
"fp07","112","filler","mismatch",1,0.5668426,"baseline"
"fp07","113","c","mismatch",1,0.5467454,"baseline"
"fp07","114","c","match",1,0.5138556,"baseline"
"fp07","115","i","match",1,0.4988248,"baseline"
"fp07","116","c","mismatch",1,0.4798293,"baseline"
"fp07","117","i","mismatch",1,0.4862578,"baseline"
"fp07","118","c","match",1,0.6963358,"baseline"
"fp07","119","i","mismatch",1,0.4221589,"baseline"
"fp07","120","c","match",1,0.717569,"baseline"
"fp07","121","filler","match",1,0.6225002,"baseline"
"fp07","122","i","match",1,1.0613769,"baseline"
"fp07","123","i","match",1,0.4920345,"baseline"
"fp07","124","c","match",1,0.7581233,"baseline"
"fp07","125","filler","match",0,0.9115965,"baseline"
"fp07","126","c","mismatch",0,0.6139037,"baseline"
"fp07","127","c","mismatch",1,0.746529,"baseline"
"fp07","128","i","match",1,0.5800393,"baseline"
"fp07","129","c","mismatch",1,0.5791932,"baseline"
"fp07","130","i","mismatch",1,0.5970789,"baseline"
"fp07","131","c","mismatch",1,0.7511289,"baseline"
"fp07","132","i","mismatch",1,0.5886608,"baseline"
"fp07","133","i","match",1,0.8314251,"baseline"
"fp07","134","c","match",1,0.4284852,"baseline"
"fp07","135","i","match",1,0.5574695,"baseline"
"fp07","136","c","mismatch",1,0.885514,"baseline"
"fp07","137","i","mismatch",1,0.7812465,"baseline"
"fp07","138","i","mismatch",1,0.662457,"baseline"
"fp07","139","i","mismatch",1,0.5818205,"baseline"
"fp07","140","c","mismatch",1,0.7754642,"baseline"
"fp07","141","i","mismatch",1,0.8225087,"baseline"
"fp07","142","i","mismatch",1,0.5535468,"baseline"
"fp07","143","i","mismatch",1,0.6495014,"baseline"
"fp07","144","c","mismatch",1,0.8178792,"baseline"
"fp07","145","c","match",1,0.9125385,"baseline"
"fp07","146","c","match",1,0.5524505,"baseline"
"fp07","147","i","match",1,0.4955182,"baseline"
"fp07","148","c","mismatch",1,0.6121164,"baseline"
"fp07","149","c","mismatch",1,0.6251386,"baseline"
"fp07","150","i","match",1,0.6014946,"baseline"
"fp07","151","c","match",1,0.6837381,"baseline"
"fp07","152","i","match",1,0.6766307,"baseline"
"fp07","153","c","match",1,0.582572,"baseline"
"fp07","154","i","mismatch",1,0.642991,"baseline"
"fp07","155","c","mismatch",1,0.6036874,"baseline"
"fp07","156","filler","mismatch",1,0.4660541,"baseline"
"fp07","157","c","match",1,0.4997543,"baseline"
"fp07","158","c","match",1,0.5375374,"baseline"
"fp07","159","i","mismatch",1,0.7860155,"baseline"
"fp07","160","i","mismatch",1,0.7182326,"baseline"
"fp07","161","i","match",1,0.5428349,"baseline"
"fp07","162","c","match",1,0.8338952,"baseline"
"fp07","163","i","match",1,0.653093,"baseline"
"fp07","164","i","match",1,0.6660559,"baseline"
"fp07","165","filler","mismatch",1,0.6646961,"baseline"
"fp07","166","c","match",1,0.6296172,"baseline"
"fp07","167","i","match",1,0.689661,"baseline"
"fp07","168","i","mismatch",1,0.7686927,"baseline"
"fp07","169","filler","match",0,0.5915595,"baseline"
"fp07","170","i","match",1,0.7554364,"baseline"
"fp07","171","c","match",1,0.513067,"baseline"
"fp07","172","c","match",1,0.8945196,"baseline"
"fp07","173","i","match",1,0.4819415,"baseline"
"fp07","174","i","mismatch",1,0.7086266,"baseline"
"fp07","175","c","match",1,0.6500308,"baseline"
"fp07","176","c","mismatch",1,0.8103075,"baseline"
"fp07","177","i","mismatch",1,0.5635899,"baseline"
"fp07","178","i","mismatch",1,0.4464215,"baseline"
"fp07","179","i","match",1,0.7126653,"baseline"
"fp07","180","c","mismatch",1,0.6748377,"baseline"
"fp07","181","c","mismatch",1,1.2305486,"baseline"
"fp07","182","filler","match",1,0.7515005,"baseline"
"fp07","183","i","match",1,0.4967165,"baseline"
"fp07","184","i","mismatch",1,0.6382737,"baseline"
"fp07","185","i","mismatch",1,0.7626775,"baseline"
"fp07","186","c","mismatch",1,0.546814,"baseline"
"fp07","187","c","mismatch",1,0.6205701,"baseline"
"fp07","188","i","match",1,0.5469418,"baseline"
"fp07","189","c","mismatch",1,0.8130929,"baseline"
"fp07","190","c","match",1,0.5255985,"baseline"
"fp07","191","i","mismatch",1,0.866967,"baseline"
"fp07","192","filler","mismatch",1,0.4991137,"baseline"
"fp07","193","c","match",1,0.432505,"baseline"
"fp07","194","c","mismatch",1,0.5604663,"baseline"
"fp07","195","i","match",1,0.5342243,"baseline"
"fp07","196","i","mismatch",1,0.5720957,"baseline"
"fp07","197","c","match",1,0.4382784,"baseline"
"fp07","198","c","mismatch",1,0.6638581,"baseline"
"fp07","199","i","match",1,0.4519066,"baseline"
"fp07","200","i","mismatch",1,0.8541077,"baseline"
"fp07","201","c","mismatch",1,0.577485,"baseline"
"fp07","202","c","mismatch",1,0.5889686,"baseline"
"fp07","203","c","mismatch",0,0.5968815,"baseline"
"fp07","204","i","mismatch",1,0.5174571,"baseline"
"fp07","205","i","match",1,0.4450601,"baseline"
"fp07","206","c","match",1,0.5282223,"baseline"
"fp07","207","c","mismatch",1,0.564114,"baseline"
"fp07","208","c","match",1,0.8564704,"baseline"
"fp08","1","i","match",1,0.4124158,"adapt"
"fp08","2","i","match",1,0.3654113,"adapt"
"fp08","3","c","match",1,0.4446006,"adapt"
"fp08","4","c","match",1,0.426497,"adapt"
"fp08","5","i","mismatch",1,0.4227913,"adapt"
"fp08","6","i","match",1,0.3318523,"adapt"
"fp08","7","c","match",1,0.4157483,"adapt"
"fp08","8","filler","mismatch",1,0.3750039,"adapt"
"fp08","9","c","mismatch",1,0.351294,"adapt"
"fp08","10","c","match",1,0.3563494,"adapt"
"fp08","11","i","match",1,0.4515314,"adapt"
"fp08","12","c","mismatch",1,0.4210999,"adapt"
"fp08","13","i","mismatch",1,0.3607987,"adapt"
"fp08","14","c","match",1,0.4306719,"adapt"
"fp08","15","i","mismatch",1,0.4471645,"adapt"
"fp08","16","c","match",1,0.5089815,"adapt"
"fp08","17","filler","match",1,0.4836869,"adapt"
"fp08","18","i","match",1,0.4155938,"adapt"
"fp08","19","i","match",1,0.4099734,"adapt"
"fp08","20","c","match",1,0.4381418,"adapt"
"fp08","21","filler","match",1,0.4738597,"adapt"
"fp08","22","c","mismatch",1,0.4297509,"adapt"
"fp08","23","c","mismatch",1,0.4297024,"adapt"
"fp08","24","i","match",0,0.4444961,"adapt"
"fp08","25","c","mismatch",1,0.6379807,"adapt"
"fp08","26","i","mismatch",1,0.357865,"adapt"
"fp08","27","c","mismatch",1,0.3579843,"adapt"
"fp08","28","i","mismatch",1,0.4136961,"adapt"
"fp08","29","i","match",1,0.3923705,"adapt"
"fp08","30","c","match",1,0.3597992,"adapt"
"fp08","31","i","match",1,0.5175201,"adapt"
"fp08","32","c","mismatch",1,0.3271402,"adapt"
"fp08","33","i","mismatch",1,0.4673332,"adapt"
"fp08","34","i","mismatch",1,0.3818677,"adapt"
"fp08","35","i","mismatch",1,0.3205934,"adapt"
"fp08","36","c","mismatch",1,0.3617296,"adapt"
"fp08","37","i","mismatch",1,0.4741426,"adapt"
"fp08","38","i","mismatch",1,0.3075917,"adapt"
"fp08","39","i","mismatch",1,0.338248,"adapt"
"fp08","40","c","mismatch",1,0.5014067,"adapt"
"fp08","41","c","match",1,0.386658,"adapt"
"fp08","42","c","match",1,0.5171298,"adapt"
"fp08","43","i","match",1,0.2920568,"adapt"
"fp08","44","c","mismatch",1,0.4737682,"adapt"
"fp08","45","c","mismatch",1,0.3713769,"adapt"
"fp08","46","i","match",1,0.583647,"adapt"
"fp08","47","c","match",1,0.4069186,"adapt"
"fp08","48","i","match",1,0.528478,"adapt"
"fp08","49","c","match",1,0.3997002,"adapt"
"fp08","50","i","mismatch",1,0.3514301,"adapt"
"fp08","51","c","mismatch",1,0.4821792,"adapt"
"fp08","52","filler","mismatch",1,0.4066277,"adapt"
"fp08","53","c","match",1,0.3638091,"adapt"
"fp08","54","c","match",1,0.4232403,"adapt"
"fp08","55","i","mismatch",1,0.422314,"adapt"
"fp08","56","i","mismatch",1,0.4655813,"adapt"
"fp08","57","i","match",1,0.619022,"adapt"
"fp08","58","c","match",1,0.3300827,"adapt"
"fp08","59","i","match",1,0.3666905,"adapt"
"fp08","60","i","match",1,0.4546606,"adapt"
"fp08","61","filler","mismatch",1,0.4425682,"adapt"
"fp08","62","c","match",1,0.3864119,"adapt"
"fp08","63","i","match",1,0.4005647,"adapt"
"fp08","64","i","mismatch",1,0.5198535,"adapt"
"fp08","65","filler","match",1,0.4243831,"adapt"
"fp08","66","i","match",1,0.4989942,"adapt"
"fp08","67","c","match",1,0.4125733,"adapt"
"fp08","68","c","match",0,0.3866709,"adapt"
"fp08","69","i","match",1,0.4594279,"adapt"
"fp08","70","i","mismatch",1,0.3354616,"adapt"
"fp08","71","c","match",1,0.3167742,"adapt"
"fp08","72","c","mismatch",1,0.5548752,"adapt"
"fp08","73","i","mismatch",1,0.4011731,"adapt"
"fp08","74","i","mismatch",1,0.3397979,"adapt"
"fp08","75","i","match",1,0.4961066,"adapt"
"fp08","76","c","mismatch",1,0.4916665,"adapt"
"fp08","77","c","mismatch",1,0.5020361,"adapt"
"fp08","78","filler","match",1,0.4339633,"adapt"
"fp08","79","i","match",1,0.4102853,"adapt"
"fp08","80","i","mismatch",1,0.3117548,"adapt"
"fp08","81","i","mismatch",1,0.292659,"adapt"
"fp08","82","c","mismatch",1,0.4429714,"adapt"
"fp08","83","c","mismatch",1,0.3657312,"adapt"
"fp08","84","i","match",0,0.3414103,"adapt"
"fp08","85","c","mismatch",1,0.4166378,"adapt"
"fp08","86","c","match",1,0.4982032,"adapt"
"fp08","87","i","mismatch",1,0.30967,"adapt"
"fp08","88","filler","mismatch",1,0.3511612,"adapt"
"fp08","89","c","match",1,0.3887954,"adapt"
"fp08","90","c","mismatch",1,0.3893147,"adapt"
"fp08","91","i","match",0,0.4569528,"adapt"
"fp08","92","i","mismatch",1,0.58433,"adapt"
"fp08","93","c","match",1,0.4519536,"adapt"
"fp08","94","c","mismatch",1,0.3952263,"adapt"
"fp08","95","i","match",1,0.3796292,"adapt"
"fp08","96","i","mismatch",1,0.2490173,"adapt"
"fp08","97","c","mismatch",1,0.3374597,"adapt"
"fp08","98","c","mismatch",1,0.4819724,"adapt"
"fp08","99","c","mismatch",1,0.4015966,"adapt"
"fp08","100","i","mismatch",0,0.3717994,"adapt"
"fp08","101","i","match",1,0.470591,"adapt"
"fp08","102","c","match",1,0.3626524,"adapt"
"fp08","103","c","mismatch",1,0.5105245,"adapt"
"fp08","104","c","match",1,0.4842801,"adapt"
"fp08","105","i","match",0,0.4438879,"baseline"
"fp08","106","i","match",1,0.5538213,"baseline"
"fp08","107","c","match",1,0.4743717,"baseline"
"fp08","108","c","match",1,0.4410374,"baseline"
"fp08","109","i","mismatch",1,0.4753594,"baseline"
"fp08","110","i","match",1,0.5460365,"baseline"
"fp08","111","c","match",1,0.4138343,"baseline"
"fp08","112","filler","mismatch",1,0.5106103,"baseline"
"fp08","113","c","mismatch",1,0.4358688,"baseline"
"fp08","114","c","match",1,0.3966481,"baseline"
"fp08","115","i","match",1,0.4520831,"baseline"
"fp08","116","c","mismatch",1,0.4923837,"baseline"
"fp08","117","i","mismatch",1,0.4212671,"baseline"
"fp08","118","c","match",1,0.5231725,"baseline"
"fp08","119","i","mismatch",1,0.401299,"baseline"
"fp08","120","c","match",1,0.4095121,"baseline"
"fp08","121","filler","match",1,0.5017171,"baseline"
"fp08","122","i","match",1,0.5926834,"baseline"
"fp08","123","i","match",1,0.6638087,"baseline"
"fp08","124","c","match",1,0.4897184,"baseline"
"fp08","125","filler","match",1,0.3314454,"baseline"
"fp08","126","c","mismatch",1,0.3785547,"baseline"
"fp08","127","c","mismatch",1,0.4708324,"baseline"
"fp08","128","i","match",1,0.4091894,"baseline"
"fp08","129","c","mismatch",1,0.5813523,"baseline"
"fp08","130","i","mismatch",1,0.7204041,"baseline"
"fp08","131","c","mismatch",1,0.4635745,"baseline"
"fp08","132","i","mismatch",1,0.5200026,"baseline"
"fp08","133","i","match",1,0.4798398,"baseline"
"fp08","134","c","match",1,0.5211114,"baseline"
"fp08","135","i","match",1,0.5848701,"baseline"
"fp08","136","c","mismatch",1,0.4889402,"baseline"
"fp08","137","i","mismatch",1,0.4090019,"baseline"
"fp08","138","i","mismatch",1,0.4876626,"baseline"
"fp08","139","i","mismatch",1,0.5068527,"baseline"
"fp08","140","c","mismatch",1,0.4852607,"baseline"
"fp08","141","i","mismatch",1,0.6463528,"baseline"
"fp08","142","i","mismatch",1,0.5232178,"baseline"
"fp08","143","i","mismatch",1,0.393774,"baseline"
"fp08","144","c","mismatch",1,0.5175449,"baseline"
"fp08","145","c","match",1,0.6574457,"baseline"
"fp08","146","c","match",1,0.390884,"baseline"
"fp08","147","i","match",1,0.4556965,"baseline"
"fp08","148","c","mismatch",1,0.5103242,"baseline"
"fp08","149","c","mismatch",1,0.5873518,"baseline"
"fp08","150","i","match",1,0.4271091,"baseline"
"fp08","151","c","match",1,0.400504,"baseline"
"fp08","152","i","match",1,0.3194651,"baseline"
"fp08","153","c","match",1,0.3432362,"baseline"
"fp08","154","i","mismatch",1,0.399066,"baseline"
"fp08","155","c","mismatch",1,0.4110186,"baseline"
"fp08","156","filler","mismatch",1,0.5625349,"baseline"
"fp08","157","c","match",1,0.3663298,"baseline"
"fp08","158","c","match",1,0.4880517,"baseline"
"fp08","159","i","mismatch",1,0.5676549,"baseline"
"fp08","160","i","mismatch",1,0.4135059,"baseline"
"fp08","161","i","match",1,0.6024938,"baseline"
"fp08","162","c","match",1,0.4994654,"baseline"
"fp08","163","i","match",1,0.647204,"baseline"
"fp08","164","i","match",1,0.7759593,"baseline"
"fp08","165","filler","mismatch",1,0.5634216,"baseline"
"fp08","166","c","match",1,0.4541404,"baseline"
"fp08","167","i","match",0,0.7741538,"baseline"
"fp08","168","i","mismatch",1,0.5570791,"baseline"
"fp08","169","filler","match",1,0.579831,"baseline"
"fp08","170","i","match",1,0.4415246,"baseline"
"fp08","171","c","match",1,0.4648085,"baseline"
"fp08","172","c","match",1,0.4525788,"baseline"
"fp08","173","i","match",1,0.4608162,"baseline"
"fp08","174","i","mismatch",1,0.5904569,"baseline"
"fp08","175","c","match",1,0.3365483,"baseline"
"fp08","176","c","mismatch",1,0.4343771,"baseline"
"fp08","177","i","mismatch",1,0.6338056,"baseline"
"fp08","178","i","mismatch",1,0.6447427,"baseline"
"fp08","179","i","match",1,0.5699206,"baseline"
"fp08","180","c","mismatch",1,0.4083227,"baseline"
"fp08","181","c","mismatch",1,0.5705361,"baseline"
"fp08","182","filler","match",1,0.3596985,"baseline"
"fp08","183","i","match",1,0.4293902,"baseline"
"fp08","184","i","mismatch",1,0.6450628,"baseline"
"fp08","185","i","mismatch",1,0.4507577,"baseline"
"fp08","186","c","mismatch",1,0.3599344,"baseline"
"fp08","187","c","mismatch",1,0.3600595,"baseline"
"fp08","188","i","match",1,0.3791955,"baseline"
"fp08","189","c","mismatch",1,0.4077401,"baseline"
"fp08","190","c","match",1,0.3734755,"baseline"
"fp08","191","i","mismatch",1,0.5260481,"baseline"
"fp08","192","filler","mismatch",1,0.5197392,"baseline"
"fp08","193","c","match",1,0.4498618,"baseline"
"fp08","194","c","mismatch",1,0.4469106,"baseline"
"fp08","195","i","match",1,0.3090557,"baseline"
"fp08","196","i","mismatch",1,0.3808132,"baseline"
"fp08","197","c","match",1,0.5134691,"baseline"
"fp08","198","c","mismatch",1,0.4661253,"baseline"
"fp08","199","i","match",1,0.6755088,"baseline"
"fp08","200","i","mismatch",1,0.3670164,"baseline"
"fp08","201","c","mismatch",1,0.4666077,"baseline"
"fp08","202","c","mismatch",1,0.5635725,"baseline"
"fp08","203","c","mismatch",1,0.51008,"baseline"
"fp08","204","i","mismatch",1,0.4309947,"baseline"
"fp08","205","i","match",1,0.3558832,"baseline"
"fp08","206","c","match",1,0.3981774,"baseline"
"fp08","207","c","mismatch",1,0.4383246,"baseline"
"fp08","208","c","match",1,0.4457665,"baseline"
"fp09","1","i","match",1,0.6527485,"adapt"
"fp09","2","i","match",1,0.6680375,"adapt"
"fp09","3","c","match",1,0.4184764,"adapt"
"fp09","4","c","match",1,0.6724968,"adapt"
"fp09","5","i","mismatch",1,0.994341,"adapt"
"fp09","6","i","match",1,0.6013023,"adapt"
"fp09","7","c","match",1,0.6565131,"adapt"
"fp09","8","filler","mismatch",1,0.8185898,"adapt"
"fp09","9","c","mismatch",1,0.7026053,"adapt"
"fp09","10","c","match",0,0.6622619,"adapt"
"fp09","11","i","match",1,0.6006734,"adapt"
"fp09","12","c","mismatch",1,0.3901481,"adapt"
"fp09","13","i","mismatch",1,0.482545,"adapt"
"fp09","14","c","match",1,0.8353085,"adapt"
"fp09","15","i","mismatch",1,0.4370729,"adapt"
"fp09","16","c","match",1,0.9044509,"adapt"
"fp09","17","filler","match",1,1.0952765,"adapt"
"fp09","18","i","match",1,0.7841941,"adapt"
"fp09","19","i","match",1,0.8217968,"adapt"
"fp09","20","c","match",1,0.3443294,"adapt"
"fp09","21","filler","match",1,0.5279661,"adapt"
"fp09","22","c","mismatch",1,0.5164758,"adapt"
"fp09","23","c","mismatch",1,0.7544965,"adapt"
"fp09","24","i","match",1,0.8461898,"adapt"
"fp09","25","c","mismatch",0,1.5965082,"adapt"
"fp09","26","i","mismatch",0,0.7281367,"adapt"
"fp09","27","c","mismatch",1,1.6767393,"adapt"
"fp09","28","i","mismatch",1,1.2636546,"adapt"
"fp09","29","i","match",1,0.9216798,"adapt"
"fp09","30","c","match",1,0.562215,"adapt"
"fp09","31","i","match",1,0.6719029,"adapt"
"fp09","32","c","mismatch",1,0.6056729,"adapt"
"fp09","33","i","mismatch",1,0.7620765,"adapt"
"fp09","34","i","mismatch",1,0.7211155,"adapt"
"fp09","35","i","mismatch",1,0.6462137,"adapt"
"fp09","36","c","mismatch",1,0.4208845,"adapt"
"fp09","37","i","mismatch",1,0.4933395,"adapt"
"fp09","38","i","mismatch",1,0.2697136,"adapt"
"fp09","39","i","mismatch",1,0.4827524,"adapt"
"fp09","40","c","mismatch",1,0.5171791,"adapt"
"fp09","41","c","match",1,0.5198558,"adapt"
"fp09","42","c","match",1,0.6435792,"adapt"
"fp09","43","i","match",1,0.4618668,"adapt"
"fp09","44","c","mismatch",0,0.962966,"adapt"
"fp09","45","c","mismatch",1,0.4303381,"adapt"
"fp09","46","i","match",1,0.8431284,"adapt"
"fp09","47","c","match",1,0.8796555,"adapt"
"fp09","48","i","match",1,0.9237261,"adapt"
"fp09","49","c","match",1,1.0674944,"adapt"
"fp09","50","i","mismatch",1,0.7927263,"adapt"
"fp09","51","c","mismatch",1,0.481627,"adapt"
"fp09","52","filler","mismatch",1,0.583396,"adapt"
"fp09","53","c","match",1,0.6848592,"adapt"
"fp09","54","c","match",1,0.4573703,"adapt"
"fp09","55","i","mismatch",0,0.7170371,"adapt"
"fp09","56","i","mismatch",0,0.5250372,"adapt"
"fp09","57","i","match",1,0.8998122,"adapt"
"fp09","58","c","match",1,0.658672,"adapt"
"fp09","59","i","match",1,0.6813394,"adapt"
"fp09","60","i","match",1,0.493822,"adapt"
"fp09","61","filler","mismatch",1,0.5702223,"adapt"
"fp09","62","c","match",1,0.8736129,"adapt"
"fp09","63","i","match",1,0.7817882,"adapt"
"fp09","64","i","mismatch",1,1.1545742,"adapt"
"fp09","65","filler","match",1,0.8010054,"adapt"
"fp09","66","i","match",1,0.9580852,"adapt"
"fp09","67","c","match",1,0.62843,"adapt"
"fp09","68","c","match",1,0.4604736,"adapt"
"fp09","69","i","match",1,0.5659739,"adapt"
"fp09","70","i","mismatch",1,0.9751785,"adapt"
"fp09","71","c","match",1,0.6086636,"adapt"
"fp09","72","c","mismatch",1,0.8319929,"adapt"
"fp09","73","i","mismatch",1,0.8573215,"adapt"
"fp09","74","i","mismatch",1,0.5129083,"adapt"
"fp09","75","i","match",1,0.558392,"adapt"
"fp09","76","c","mismatch",0,0.701537,"adapt"
"fp09","77","c","mismatch",1,0.6444473,"adapt"
"fp09","78","filler","match",1,0.8083553,"adapt"
"fp09","79","i","match",1,0.431616,"adapt"
"fp09","80","i","mismatch",1,1.2182767,"adapt"
"fp09","81","i","mismatch",1,1.0062541,"adapt"
"fp09","82","c","mismatch",1,0.750389,"adapt"
"fp09","83","c","mismatch",1,0.7121686,"adapt"
"fp09","84","i","match",1,0.5298019,"adapt"
"fp09","85","c","mismatch",1,1.0794356,"adapt"
"fp09","86","c","match",1,0.8455043,"adapt"
"fp09","87","i","mismatch",1,0.7467166,"adapt"
"fp09","88","filler","mismatch",1,0.7045719,"adapt"
"fp09","89","c","match",1,0.4868233,"adapt"
"fp09","90","c","mismatch",1,0.5210885,"adapt"
"fp09","91","i","match",1,0.5446937,"adapt"
"fp09","92","i","mismatch",1,1.3996966,"adapt"
"fp09","93","c","match",1,1.3665296,"adapt"
"fp09","94","c","mismatch",1,0.5774779,"adapt"
"fp09","95","i","match",1,0.6906989,"adapt"
"fp09","96","i","mismatch",1,1.2070577,"adapt"
"fp09","97","c","mismatch",1,0.6485716,"adapt"
"fp09","98","c","mismatch",1,0.5342009,"adapt"
"fp09","99","c","mismatch",1,0.5944161,"adapt"
"fp09","100","i","mismatch",1,0.6233289,"adapt"
"fp09","101","i","match",1,0.6536672,"adapt"
"fp09","102","c","match",1,0.41639,"adapt"
"fp09","103","c","mismatch",0,0.4784342,"adapt"
"fp09","104","c","match",1,0.5546336,"adapt"
"fp09","105","i","match",1,0.6320416,"baseline"
"fp09","106","i","match",1,1.0158728,"baseline"
"fp09","107","c","match",1,0.5654933,"baseline"
"fp09","108","c","match",1,0.6588756,"baseline"
"fp09","109","i","mismatch",1,1.4640672,"baseline"
"fp09","110","i","match",1,0.4800581,"baseline"
"fp09","111","c","match",1,0.5805284,"baseline"
"fp09","112","filler","mismatch",1,0.6195064,"baseline"
"fp09","113","c","mismatch",1,0.8140116,"baseline"
"fp09","114","c","match",1,0.4555296,"baseline"
"fp09","115","i","match",1,1.0547184,"baseline"
"fp09","116","c","mismatch",1,1.1804677,"baseline"
"fp09","117","i","mismatch",1,0.8947622,"baseline"
"fp09","118","c","match",1,0.4095122,"baseline"
"fp09","119","i","mismatch",1,0.8148904,"baseline"
"fp09","120","c","match",1,0.628089,"baseline"
"fp09","121","filler","match",1,0.6739392,"baseline"
"fp09","122","i","match",1,0.9417294,"baseline"
"fp09","123","i","match",1,0.3967263,"baseline"
"fp09","124","c","match",1,0.7549713,"baseline"
"fp09","125","filler","match",1,0.9818996,"baseline"
"fp09","126","c","mismatch",1,0.8016928,"baseline"
"fp09","127","c","mismatch",1,1.1311367,"baseline"
"fp09","128","i","match",1,0.5761111,"baseline"
"fp09","129","c","mismatch",1,0.5404115,"baseline"
"fp09","130","i","mismatch",1,1.0211445,"baseline"
"fp09","131","c","mismatch",1,0.7526466,"baseline"
"fp09","132","i","mismatch",1,1.212939,"baseline"
"fp09","133","i","match",1,0.4083143,"baseline"
"fp09","134","c","match",1,0.8409098,"baseline"
"fp09","135","i","match",1,0.6655182,"baseline"
"fp09","136","c","mismatch",1,0.7312108,"baseline"
"fp09","137","i","mismatch",1,0.7806065,"baseline"
"fp09","138","i","mismatch",1,0.7131096,"baseline"
"fp09","139","i","mismatch",1,0.7239549,"baseline"
"fp09","140","c","mismatch",1,0.5052164,"baseline"
"fp09","141","i","mismatch",1,0.5851378,"baseline"
"fp09","142","i","mismatch",1,0.5766891,"baseline"
"fp09","143","i","mismatch",1,0.6710167,"baseline"
"fp09","144","c","mismatch",1,0.3982164,"baseline"
"fp09","145","c","match",1,0.3278764,"baseline"
"fp09","146","c","match",1,0.5276671,"baseline"
"fp09","147","i","match",1,0.4971635,"baseline"
"fp09","148","c","mismatch",1,0.7751274,"baseline"
"fp09","149","c","mismatch",1,0.7586888,"baseline"
"fp09","150","i","match",0,0.5132404,"baseline"
"fp09","151","c","match",1,0.4873819,"baseline"
"fp09","152","i","match",0,1.3027489,"baseline"
"fp09","153","c","match",1,0.4225762,"baseline"
"fp09","154","i","mismatch",1,0.5954316,"baseline"
"fp09","155","c","mismatch",0,0.5543373,"baseline"
"fp09","156","filler","mismatch",1,0.5512238,"baseline"
"fp09","157","c","match",1,0.5671945,"baseline"
"fp09","158","c","match",1,0.4640467,"baseline"
"fp09","159","i","mismatch",1,0.895771,"baseline"
"fp09","160","i","mismatch",1,0.9479214,"baseline"
"fp09","161","i","match",1,0.6650067,"baseline"
"fp09","162","c","match",1,0.6109935,"baseline"
"fp09","163","i","match",0,0.6925981,"baseline"
"fp09","164","i","match",1,0.5321853,"baseline"
"fp09","165","filler","mismatch",1,0.6368323,"baseline"
"fp09","166","c","match",1,1.259554,"baseline"
"fp09","167","i","match",1,0.6145619,"baseline"
"fp09","168","i","mismatch",1,0.6967279,"baseline"
"fp09","169","filler","match",1,0.750128,"baseline"
"fp09","170","i","match",1,0.6523438,"baseline"
"fp09","171","c","match",1,0.4480114,"baseline"
"fp09","172","c","match",1,1.1150693,"baseline"
"fp09","173","i","match",1,0.5221261,"baseline"
"fp09","174","i","mismatch",1,0.5254139,"baseline"
"fp09","175","c","match",1,0.6072072,"baseline"
"fp09","176","c","mismatch",1,0.5307705,"baseline"
"fp09","177","i","mismatch",1,0.5165243,"baseline"
"fp09","178","i","mismatch",1,1.1087445,"baseline"
"fp09","179","i","match",1,0.4759013,"baseline"
"fp09","180","c","mismatch",1,1.0844438,"baseline"
"fp09","181","c","mismatch",1,0.9618185,"baseline"
"fp09","182","filler","match",0,0.604689,"baseline"
"fp09","183","i","match",1,0.4339533,"baseline"
"fp09","184","i","mismatch",1,1.168291,"baseline"
"fp09","185","i","mismatch",1,0.631825,"baseline"
"fp09","186","c","mismatch",1,0.7860778,"baseline"
"fp09","187","c","mismatch",0,0.6783683,"baseline"
"fp09","188","i","match",1,1.3540239,"baseline"
"fp09","189","c","mismatch",1,0.4316583,"baseline"
"fp09","190","c","match",1,0.5352479,"baseline"
"fp09","191","i","mismatch",1,0.8022449,"baseline"
"fp09","192","filler","mismatch",1,0.7012012,"baseline"
"fp09","193","c","match",1,1.148099,"baseline"
"fp09","194","c","mismatch",1,0.7285195,"baseline"
"fp09","195","i","match",1,0.6058024,"baseline"
"fp09","196","i","mismatch",0,1.0622629,"baseline"
"fp09","197","c","match",1,0.5177815,"baseline"
"fp09","198","c","mismatch",1,0.7966258,"baseline"
"fp09","199","i","match",1,0.5793487,"baseline"
"fp09","200","i","mismatch",1,0.9727224,"baseline"
"fp09","201","c","mismatch",1,0.8670514,"baseline"
"fp09","202","c","mismatch",1,0.5114385,"baseline"
"fp09","203","c","mismatch",1,0.5733909,"baseline"
"fp09","204","i","mismatch",1,0.6468683,"baseline"
"fp09","205","i","match",1,0.4063836,"baseline"
"fp09","206","c","match",1,0.3427135,"baseline"
"fp09","207","c","mismatch",1,0.7462877,"baseline"
"fp09","208","c","match",1,0.4409032,"baseline"
"fp10","1","i","match",1,0.7702746,"adapt"
"fp10","2","i","match",1,0.36757,"adapt"
"fp10","3","c","match",1,0.4608739,"adapt"
"fp10","4","c","match",1,0.5239887,"adapt"
"fp10","5","i","mismatch",1,0.4392296,"adapt"
"fp10","6","i","match",1,0.6546897,"adapt"
"fp10","7","c","match",1,0.4685264,"adapt"
"fp10","8","filler","mismatch",1,0.5435106,"adapt"
"fp10","9","c","mismatch",1,0.5319294,"adapt"
"fp10","10","c","match",1,0.5805155,"adapt"
"fp10","11","i","match",1,0.6391786,"adapt"
"fp10","12","c","mismatch",1,0.4756694,"adapt"
"fp10","13","i","mismatch",1,0.7036452,"adapt"
"fp10","14","c","match",1,0.7117318,"adapt"
"fp10","15","i","mismatch",1,0.6414991,"adapt"
"fp10","16","c","match",1,0.6255214,"adapt"
"fp10","17","filler","match",1,0.7518161,"adapt"
"fp10","18","i","match",1,1.0181825,"adapt"
"fp10","19","i","match",1,0.4085575,"adapt"
"fp10","20","c","match",1,0.5759319,"adapt"
"fp10","21","filler","match",1,0.9374239,"adapt"
"fp10","22","c","mismatch",1,0.7183192,"adapt"
"fp10","23","c","mismatch",1,0.5426054,"adapt"
"fp10","24","i","match",1,0.907332,"adapt"
"fp10","25","c","mismatch",1,0.6238342,"adapt"
"fp10","26","i","mismatch",1,0.4300865,"adapt"
"fp10","27","c","mismatch",1,0.6167883,"adapt"
"fp10","28","i","mismatch",1,0.8006691,"adapt"
"fp10","29","i","match",1,0.3914943,"adapt"
"fp10","30","c","match",1,0.6494878,"adapt"
"fp10","31","i","match",1,0.4124581,"adapt"
"fp10","32","c","mismatch",1,0.5197253,"adapt"
"fp10","33","i","mismatch",1,0.5995079,"adapt"
"fp10","34","i","mismatch",1,0.5706884,"adapt"
"fp10","35","i","mismatch",1,0.4390781,"adapt"
"fp10","36","c","mismatch",1,0.6853667,"adapt"
"fp10","37","i","mismatch",1,0.4782347,"adapt"
"fp10","38","i","mismatch",1,0.2953776,"adapt"
"fp10","39","i","mismatch",1,0.3438395,"adapt"
"fp10","40","c","mismatch",1,0.4978355,"adapt"
"fp10","41","c","match",1,0.4711369,"adapt"
"fp10","42","c","match",1,0.373869,"adapt"
"fp10","43","i","match",1,0.729342,"adapt"
"fp10","44","c","mismatch",1,0.5240389,"adapt"
"fp10","45","c","mismatch",1,0.5721038,"adapt"
"fp10","46","i","match",1,0.5935085,"adapt"
"fp10","47","c","match",1,0.587675,"adapt"
"fp10","48","i","match",1,0.6733692,"adapt"
"fp10","49","c","match",1,0.51934,"adapt"
"fp10","50","i","mismatch",1,0.425771,"adapt"
"fp10","51","c","mismatch",1,0.4960375,"adapt"
"fp10","52","filler","mismatch",1,0.4509028,"adapt"
"fp10","53","c","match",1,0.6703919,"adapt"
"fp10","54","c","match",1,0.6984403,"adapt"
"fp10","55","i","mismatch",1,0.4576478,"adapt"
"fp10","56","i","mismatch",1,0.4390346,"adapt"
"fp10","57","i","match",1,0.6219951,"adapt"
"fp10","58","c","match",1,0.5410755,"adapt"
"fp10","59","i","match",1,0.5110685,"adapt"
"fp10","60","i","match",1,0.5193377,"adapt"
"fp10","61","filler","mismatch",1,0.3799641,"adapt"
"fp10","62","c","match",1,0.5548622,"adapt"
"fp10","63","i","match",1,0.4249809,"adapt"
"fp10","64","i","mismatch",1,0.5446629,"adapt"
"fp10","65","filler","match",1,0.8786455,"adapt"
"fp10","66","i","match",1,0.5691004,"adapt"
"fp10","67","c","match",1,0.5556144,"adapt"
"fp10","68","c","match",1,0.5612817,"adapt"
"fp10","69","i","match",1,0.588714,"adapt"
"fp10","70","i","mismatch",1,0.6085682,"adapt"
"fp10","71","c","match",1,0.5291596,"adapt"
"fp10","72","c","mismatch",1,0.5420992,"adapt"
"fp10","73","i","mismatch",1,0.5784372,"adapt"
"fp10","74","i","mismatch",1,1.5818851,"adapt"
"fp10","75","i","match",1,0.5727163,"adapt"
"fp10","76","c","mismatch",1,0.438798,"adapt"
"fp10","77","c","mismatch",1,0.5147006,"adapt"
"fp10","78","filler","match",1,0.8253169,"adapt"
"fp10","79","i","match",1,0.5887799,"adapt"
"fp10","80","i","mismatch",1,0.8864613,"adapt"
"fp10","81","i","mismatch",1,0.6714196,"adapt"
"fp10","82","c","mismatch",1,0.3847222,"adapt"
"fp10","83","c","mismatch",1,0.5130046,"adapt"
"fp10","84","i","match",1,0.5688922,"adapt"
"fp10","85","c","mismatch",1,0.6758774,"adapt"
"fp10","86","c","match",1,0.4823805,"adapt"
"fp10","87","i","mismatch",1,0.5007091,"adapt"
"fp10","88","filler","mismatch",1,0.7965507,"adapt"
"fp10","89","c","match",1,0.5035761,"adapt"
"fp10","90","c","mismatch",1,0.3430308,"adapt"
"fp10","91","i","match",1,0.475541,"adapt"
"fp10","92","i","mismatch",1,0.5306786,"adapt"
"fp10","93","c","match",1,0.5934783,"adapt"
"fp10","94","c","mismatch",1,0.4628552,"adapt"
"fp10","95","i","match",0,0.590125,"adapt"
"fp10","96","i","mismatch",1,0.8462395,"adapt"
"fp10","97","c","mismatch",1,0.5458812,"adapt"
"fp10","98","c","mismatch",1,0.5362814,"adapt"
"fp10","99","c","mismatch",1,0.4795238,"adapt"
"fp10","100","i","mismatch",1,0.4145409,"adapt"
"fp10","101","i","match",1,0.5239105,"adapt"
"fp10","102","c","match",1,0.5497613,"adapt"
"fp10","103","c","mismatch",1,0.6840297,"adapt"
"fp10","104","c","match",1,0.9067259,"adapt"
"fp10","105","i","match",1,0.7331801,"baseline"
"fp10","106","i","match",1,1.8061045,"baseline"
"fp10","107","c","match",1,0.5063763,"baseline"
"fp10","108","c","match",1,0.6041063,"baseline"
"fp10","109","i","mismatch",1,0.4850153,"baseline"
"fp10","110","i","match",1,0.7557511,"baseline"
"fp10","111","c","match",1,0.5158852,"baseline"
"fp10","112","filler","mismatch",1,0.7011307,"baseline"
"fp10","113","c","mismatch",1,0.6798835,"baseline"
"fp10","114","c","match",1,0.8748885,"baseline"
"fp10","115","i","match",1,0.794065,"baseline"
"fp10","116","c","mismatch",1,0.4409565,"baseline"
"fp10","117","i","mismatch",1,0.4400327,"baseline"
"fp10","118","c","match",1,0.76527,"baseline"
"fp10","119","i","mismatch",1,0.9320119,"baseline"
"fp10","120","c","match",1,0.8887215,"baseline"
"fp10","121","filler","match",1,0.8409929,"baseline"
"fp10","122","i","match",1,0.3303743,"baseline"
"fp10","123","i","match",1,0.5856822,"baseline"
"fp10","124","c","match",1,0.7260257,"baseline"
"fp10","125","filler","match",1,0.7094041,"baseline"
"fp10","126","c","mismatch",1,0.5735574,"baseline"
"fp10","127","c","mismatch",1,0.4788886,"baseline"
"fp10","128","i","match",1,0.8713204,"baseline"
"fp10","129","c","mismatch",1,0.6236753,"baseline"
"fp10","130","i","mismatch",1,0.566796,"baseline"
"fp10","131","c","mismatch",1,0.6734399,"baseline"
"fp10","132","i","mismatch",1,0.6052794,"baseline"
"fp10","133","i","match",1,0.6697465,"baseline"
"fp10","134","c","match",1,0.4512155,"baseline"
"fp10","135","i","match",1,0.4425881,"baseline"
"fp10","136","c","mismatch",1,0.5459802,"baseline"
"fp10","137","i","mismatch",1,0.7646586,"baseline"
"fp10","138","i","mismatch",1,0.7369193,"baseline"
"fp10","139","i","mismatch",1,0.4194924,"baseline"
"fp10","140","c","mismatch",1,0.6645202,"baseline"
"fp10","141","i","mismatch",1,0.5372678,"baseline"
"fp10","142","i","mismatch",1,0.514613,"baseline"
"fp10","143","i","mismatch",1,0.4847941,"baseline"
"fp10","144","c","mismatch",1,0.4284327,"baseline"
"fp10","145","c","match",0,0.475783,"baseline"
"fp10","146","c","match",1,0.7611516,"baseline"
"fp10","147","i","match",1,0.4967097,"baseline"
"fp10","148","c","mismatch",1,0.4668179,"baseline"
"fp10","149","c","mismatch",1,0.8410196,"baseline"
"fp10","150","i","match",0,0.9346919,"baseline"
"fp10","151","c","match",1,0.8441943,"baseline"
"fp10","152","i","match",1,1.088147,"baseline"
"fp10","153","c","match",1,0.4796146,"baseline"
"fp10","154","i","mismatch",1,0.4667809,"baseline"
"fp10","155","c","mismatch",1,0.5102107,"baseline"
"fp10","156","filler","mismatch",1,0.8534712,"baseline"
"fp10","157","c","match",1,0.4821729,"baseline"
"fp10","158","c","match",1,0.30922,"baseline"
"fp10","159","i","mismatch",1,0.6507697,"baseline"
"fp10","160","i","mismatch",1,1.3228232,"baseline"
"fp10","161","i","match",1,0.5600868,"baseline"
"fp10","162","c","match",1,0.4493979,"baseline"
"fp10","163","i","match",1,0.6712051,"baseline"
"fp10","164","i","match",1,0.4364587,"baseline"
"fp10","165","filler","mismatch",1,0.664653,"baseline"
"fp10","166","c","match",1,0.6244856,"baseline"
"fp10","167","i","match",1,0.5986129,"baseline"
"fp10","168","i","mismatch",1,0.6352299,"baseline"
"fp10","169","filler","match",1,0.8273511,"baseline"
"fp10","170","i","match",1,0.4292092,"baseline"
"fp10","171","c","match",1,0.4890458,"baseline"
"fp10","172","c","match",1,0.8406496,"baseline"
"fp10","173","i","match",1,0.5356572,"baseline"
"fp10","174","i","mismatch",1,0.8707323,"baseline"
"fp10","175","c","match",1,0.4364653,"baseline"
"fp10","176","c","mismatch",1,0.6523747,"baseline"
"fp10","177","i","mismatch",1,0.5090439,"baseline"
"fp10","178","i","mismatch",1,0.313526,"baseline"
"fp10","179","i","match",0,0.5557261,"baseline"
"fp10","180","c","mismatch",1,0.6729474,"baseline"
"fp10","181","c","mismatch",1,1.5547685,"baseline"
"fp10","182","filler","match",1,0.5982761,"baseline"
"fp10","183","i","match",1,0.4374039,"baseline"
"fp10","184","i","mismatch",1,1.0516296,"baseline"
"fp10","185","i","mismatch",1,1.3242066,"baseline"
"fp10","186","c","mismatch",1,1.3108013,"baseline"
"fp10","187","c","mismatch",1,0.6674593,"baseline"
"fp10","188","i","match",1,0.3632322,"baseline"
"fp10","189","c","mismatch",1,0.5761733,"baseline"
"fp10","190","c","match",1,0.581615,"baseline"
"fp10","191","i","mismatch",1,0.4140453,"baseline"
"fp10","192","filler","mismatch",1,0.820999,"baseline"
"fp10","193","c","match",1,0.5898319,"baseline"
"fp10","194","c","mismatch",1,0.7546422,"baseline"
"fp10","195","i","match",1,0.4155721,"baseline"
"fp10","196","i","mismatch",1,0.5291144,"baseline"
"fp10","197","c","match",1,0.4267342,"baseline"
"fp10","198","c","mismatch",1,0.2853271,"baseline"
"fp10","199","i","match",1,0.6813138,"baseline"
"fp10","200","i","mismatch",1,0.5982362,"baseline"
"fp10","201","c","mismatch",0,0.5929117,"baseline"
"fp10","202","c","mismatch",1,0.5881099,"baseline"
"fp10","203","c","mismatch",1,0.7146461,"baseline"
"fp10","204","i","mismatch",1,0.3041411,"baseline"
"fp10","205","i","match",1,0.6902526,"baseline"
"fp10","206","c","match",1,0.4373567,"baseline"
"fp10","207","c","mismatch",1,0.6325982,"baseline"
"fp10","208","c","match",1,0.5264846,"baseline"
"fp11","1","i","match",1,0.5030652,"adapt"
"fp11","2","i","match",1,0.4419978,"adapt"
"fp11","3","c","match",1,0.5917384,"adapt"
"fp11","4","c","match",1,0.4795752,"adapt"
"fp11","5","i","mismatch",1,0.4754308,"adapt"
"fp11","6","i","match",1,0.4734548,"adapt"
"fp11","7","c","match",1,0.3634714,"adapt"
"fp11","8","filler","mismatch",1,0.5660627,"adapt"
"fp11","9","c","mismatch",1,0.5052139,"adapt"
"fp11","10","c","match",1,0.9349032,"adapt"
"fp11","11","i","match",1,0.5121284,"adapt"
"fp11","12","c","mismatch",1,0.4072132,"adapt"
"fp11","13","i","mismatch",1,0.53706,"adapt"
"fp11","14","c","match",1,0.494906,"adapt"
"fp11","15","i","mismatch",1,0.4690008,"adapt"
"fp11","16","c","match",1,0.5142343,"adapt"
"fp11","17","filler","match",1,0.6229129,"adapt"
"fp11","18","i","match",1,0.530004,"adapt"
"fp11","19","i","match",1,0.4595703,"adapt"
"fp11","20","c","match",1,0.4213087,"adapt"
"fp11","21","filler","match",1,0.4015105,"adapt"
"fp11","22","c","mismatch",0,0.5182029,"adapt"
"fp11","23","c","mismatch",1,0.5038963,"adapt"
"fp11","24","i","match",1,0.4522044,"adapt"
"fp11","25","c","mismatch",1,0.4943331,"adapt"
"fp11","26","i","mismatch",1,0.4533807,"adapt"
"fp11","27","c","mismatch",1,0.5411688,"adapt"
"fp11","28","i","mismatch",1,0.4558613,"adapt"
"fp11","29","i","match",0,0.5893924,"adapt"
"fp11","30","c","match",1,0.7361834,"adapt"
"fp11","31","i","match",1,0.6775252,"adapt"
"fp11","32","c","mismatch",1,0.5104598,"adapt"
"fp11","33","i","mismatch",1,0.7548996,"adapt"
"fp11","34","i","mismatch",1,0.6975248,"adapt"
"fp11","35","i","mismatch",1,0.5481182,"adapt"
"fp11","36","c","mismatch",1,0.4506511,"adapt"
"fp11","37","i","mismatch",1,0.5810826,"adapt"
"fp11","38","i","mismatch",1,0.4874287,"adapt"
"fp11","39","i","mismatch",1,0.486969,"adapt"
"fp11","40","c","mismatch",1,0.6389404,"adapt"
"fp11","41","c","match",1,0.5091197,"adapt"
"fp11","42","c","match",1,0.6070566,"adapt"
"fp11","43","i","match",1,0.6761626,"adapt"
"fp11","44","c","mismatch",1,0.4743271,"adapt"
"fp11","45","c","mismatch",1,0.4524637,"adapt"
"fp11","46","i","match",1,0.5361198,"adapt"
"fp11","47","c","match",1,0.5096621,"adapt"
"fp11","48","i","match",1,0.4218028,"adapt"
"fp11","49","c","match",1,0.4801921,"adapt"
"fp11","50","i","mismatch",1,0.7498951,"adapt"
"fp11","51","c","mismatch",1,0.4979794,"adapt"
"fp11","52","filler","mismatch",1,0.4908527,"adapt"
"fp11","53","c","match",1,1.0869845,"adapt"
"fp11","54","c","match",1,0.4415918,"adapt"
"fp11","55","i","mismatch",1,0.5247034,"adapt"
"fp11","56","i","mismatch",1,0.4661736,"adapt"
"fp11","57","i","match",0,0.5984895,"adapt"
"fp11","58","c","match",1,0.458816,"adapt"
"fp11","59","i","match",1,0.6309097,"adapt"
