"participant","trial_num","consistency","matching","key_resp_3.corr","key_resp_3.rt","stage"
"pp01","1","i","match",1,1.054915,"adapt"
"pp01","2","i","match",1,0.5787309,"adapt"
"pp01","3","c","match",1,0.5693478,"adapt"
"pp01","4","c","match",1,0.4849264,"adapt"
"pp01","5","i","mismatch",1,0.5371349,"adapt"
"pp01","6","i","match",1,0.6136616,"adapt"
"pp01","7","c","match",1,0.4884472,"adapt"
"pp01","8","filler","mismatch",1,0.5768786,"adapt"
"pp01","9","c","mismatch",1,0.8387737,"adapt"
"pp01","10","c","match",1,0.6106833,"adapt"
"pp01","11","i","match",1,0.5354526,"adapt"
"pp01","12","c","mismatch",1,0.5945959,"adapt"
"pp01","13","i","mismatch",1,0.712316,"adapt"
"pp01","14","c","match",1,0.7093959,"adapt"
"pp01","15","i","mismatch",1,0.6430338,"adapt"
"pp01","16","c","match",1,0.6220884,"adapt"
"pp01","17","filler","match",1,0.7704086,"adapt"
"pp01","18","i","match",1,0.6438647,"adapt"
"pp01","19","i","match",1,0.6331917,"adapt"
"pp01","20","c","match",1,0.5015097,"adapt"
"pp01","21","filler","match",1,0.5702433,"adapt"
"pp01","22","c","mismatch",1,0.7141906,"adapt"
"pp01","23","c","mismatch",1,0.5968642,"adapt"
"pp01","24","i","match",1,0.5570739,"adapt"
"pp01","25","c","mismatch",1,0.6030404,"adapt"
"pp01","26","i","mismatch",1,0.5896609,"adapt"
"pp01","27","c","mismatch",1,0.4663588,"adapt"
"pp01","28","i","mismatch",1,0.4906953,"adapt"
"pp01","29","i","match",1,0.4963745,"adapt"
"pp01","30","c","match",1,0.4455218,"adapt"
"pp01","31","i","match",1,0.4389978,"adapt"
"pp01","32","c","mismatch",1,0.4677325,"adapt"
"pp01","33","i","mismatch",1,0.4270167,"adapt"
"pp01","34","i","mismatch",1,0.5384671,"adapt"
"pp01","35","i","mismatch",1,0.719688,"adapt"
"pp01","36","c","mismatch",1,0.5461752,"adapt"
"pp01","37","i","mismatch",1,0.5457043,"adapt"
"pp01","38","i","mismatch",1,0.6652775,"adapt"
"pp01","39","i","mismatch",1,0.4472066,"adapt"
"pp01","40","c","mismatch",1,0.5207235,"adapt"
"pp01","41","c","match",1,0.5625923,"adapt"
"pp01","42","c","match",1,0.4659073,"adapt"
"pp01","43","i","match",1,0.5214477,"adapt"
"pp01","44","c","mismatch",1,0.4700956,"adapt"
"pp01","45","c","mismatch",1,0.4970146,"adapt"
"pp01","46","i","match",1,0.4709197,"adapt"
"pp01","47","c","match",1,0.4186227,"adapt"
"pp01","48","i","match",1,0.4601176,"adapt"
"pp01","49","c","match",1,0.5480199,"adapt"
"pp01","50","i","mismatch",1,0.6443255,"adapt"
"pp01","51","c","mismatch",1,0.5469922,"adapt"
"pp01","52","filler","mismatch",1,0.6783548,"adapt"
"pp01","53","c","match",1,0.4183144,"adapt"
"pp01","54","c","match",1,0.4768549,"adapt"
"pp01","55","i","mismatch",1,0.5723274,"adapt"
"pp01","56","i","mismatch",1,0.4859505,"adapt"
"pp01","57","i","match",1,0.5798498,"adapt"
"pp01","58","c","match",1,0.714365,"adapt"
"pp01","59","i","match",1,0.4230822,"adapt"
"pp01","60","i","match",1,0.4719832,"adapt"
"pp01","61","filler","mismatch",1,0.4815484,"adapt"
"pp01","62","c","match",1,0.493065,"adapt"
"pp01","63","i","match",1,0.4163814,"adapt"
"pp01","64","i","mismatch",1,0.3552669,"adapt"
"pp01","65","filler","match",0,0.4517827,"adapt"
"pp01","66","i","match",1,0.4903694,"adapt"
"pp01","67","c","match",1,0.4141541,"adapt"
"pp01","68","c","match",1,0.4992543,"adapt"
"pp01","69","i","match",1,0.6721377,"adapt"
"pp01","70","i","mismatch",1,0.8275001,"adapt"
"pp01","71","c","match",1,0.4157474,"adapt"
"pp01","72","c","mismatch",1,0.6546803,"adapt"
"pp01","73","i","mismatch",1,0.485158,"adapt"
"pp01","74","i","mismatch",1,0.4662474,"adapt"
"pp01","75","i","match",1,0.4363852,"adapt"
"pp01","76","c","mismatch",1,0.4324088,"adapt"
"pp01","77","c","mismatch",1,0.674819,"adapt"
"pp01","78","filler","match",1,0.4365101,"adapt"
"pp01","79","i","match",1,0.4975347,"adapt"
"pp01","80","i","mismatch",1,0.3980084,"adapt"
"pp01","81","i","mismatch",1,0.5776292,"adapt"
"pp01","82","c","mismatch",1,0.6195581,"adapt"
"pp01","83","c","mismatch",1,0.4735472,"adapt"
"pp01","84","i","match",1,0.4319212,"adapt"
"pp01","85","c","mismatch",1,0.4677227,"adapt"
"pp01","86","c","match",1,0.6328369,"adapt"
"pp01","87","i","mismatch",1,0.4359927,"adapt"
"pp01","88","filler","mismatch",1,0.3718173,"adapt"
"pp01","89","c","match",1,0.5184733,"adapt"
"pp01","90","c","mismatch",1,0.5977326,"adapt"
"pp01","91","i","match",1,0.3434815,"adapt"
"pp01","92","i","mismatch",1,0.3457981,"adapt"
"pp01","93","c","match",1,0.5666613,"adapt"
"pp01","94","c","mismatch",1,0.6201387,"adapt"
"pp01","95","i","match",1,0.4922662,"adapt"
"pp01","96","i","mismatch",1,0.3785665,"adapt"
"pp01","97","c","mismatch",1,0.5680661,"adapt"
"pp01","98","c","mismatch",1,0.4610523,"adapt"
"pp01","99","c","mismatch",1,0.4664305,"adapt"
"pp01","100","i","mismatch",1,0.4638614,"adapt"
"pp01","101","i","match",1,0.4707051,"adapt"
"pp01","102","c","match",1,0.4401226,"adapt"
"pp01","103","c","mismatch",1,0.4175116,"adapt"
"pp01","104","c","match",1,0.45983,"adapt"
"pp01","105","i","match",1,0.4933637,"baseline"
"pp01","106","i","match",1,0.5995404,"baseline"
"pp01","107","c","match",1,1.0047449,"baseline"
"pp01","108","c","match",1,0.8680111,"baseline"
"pp01","109","i","mismatch",1,0.6267425,"baseline"
"pp01","110","i","match",1,0.5181367,"baseline"
"pp01","111","c","match",1,0.4720409,"baseline"
"pp01","112","filler","mismatch",1,0.766184,"baseline"
"pp01","113","c","mismatch",1,0.6495008,"baseline"
"pp01","114","c","match",1,0.5656153,"baseline"
"pp01","115","i","match",1,0.5163795,"baseline"
"pp01","116","c","mismatch",1,0.6625639,"baseline"
"pp01","117","i","mismatch",1,1.0053944,"baseline"
"pp01","118","c","match",1,0.8644639,"baseline"
"pp01","119","i","mismatch",1,0.4907542,"baseline"
"pp01","120","c","match",1,0.9822548,"baseline"
"pp01","121","filler","match",1,0.8609377,"baseline"
"pp01","122","i","match",1,0.6016364,"baseline"
"pp01","123","i","match",1,0.9493774,"baseline"
"pp01","124","c","match",1,0.6118294,"baseline"
"pp01","125","filler","match",1,0.7450153,"baseline"
"pp01","126","c","mismatch",1,0.9500112,"baseline"
"pp01","127","c","mismatch",1,0.6411539,"baseline"
"pp01","128","i","match",1,0.8661396,"baseline"
"pp01","129","c","mismatch",1,0.4883657,"baseline"
"pp01","130","i","mismatch",0,0.6099823,"baseline"
"pp01","131","c","mismatch",1,1.1533525,"baseline"
"pp01","132","i","mismatch",1,0.989308,"baseline"
"pp01","133","i","match",1,0.4877385,"baseline"
"pp01","134","c","match",1,0.5691631,"baseline"
"pp01","135","i","match",1,0.4768593,"baseline"
"pp01","136","c","mismatch",1,0.6148206,"baseline"
"pp01","137","i","mismatch",1,0.9016804,"baseline"
"pp01","138","i","mismatch",1,0.8131938,"baseline"
"pp01","139","i","mismatch",1,0.9564673,"baseline"
"pp01","140","c","mismatch",1,0.6611071,"baseline"
"pp01","141","i","mismatch",1,0.6034172,"baseline"
"pp01","142","i","mismatch",1,0.5226009,"baseline"
"pp01","143","i","mismatch",1,0.6181483,"baseline"
"pp01","144","c","mismatch",1,0.6012869,"baseline"
"pp01","145","c","match",1,0.7540093,"baseline"
"pp01","146","c","match",1,0.6697692,"baseline"
"pp01","147","i","match",1,0.4785863,"baseline"
"pp01","148","c","mismatch",1,0.7239299,"baseline"
"pp01","149","c","mismatch",1,0.7552358,"baseline"
"pp01","150","i","match",1,0.6529791,"baseline"
"pp01","151","c","match",1,0.5699325,"baseline"
"pp01","152","i","match",1,0.48479,"baseline"
"pp01","153","c","match",1,0.4993438,"baseline"
"pp01","154","i","mismatch",1,0.5246581,"baseline"
"pp01","155","c","mismatch",1,0.6736715,"baseline"
"pp01","156","filler","mismatch",1,0.7599525,"baseline"
"pp01","157","c","match",1,0.4475677,"baseline"
"pp01","158","c","match",1,0.5745958,"baseline"
"pp01","159","i","mismatch",1,0.6634323,"baseline"
"pp01","160","i","mismatch",1,0.5089236,"baseline"
"pp01","161","i","match",1,0.5235854,"baseline"
"pp01","162","c","match",1,0.5657741,"baseline"
"pp01","163","i","match",1,0.733814,"baseline"
"pp01","164","i","match",1,0.4664631,"baseline"
"pp01","165","filler","mismatch",1,0.5963634,"baseline"
"pp01","166","c","match",1,0.5663134,"baseline"
"pp01","167","i","match",1,0.5002603,"baseline"
"pp01","168","i","mismatch",1,0.6665574,"baseline"
"pp01","169","filler","match",1,0.474954,"baseline"
"pp01","170","i","match",1,0.6046616,"baseline"
"pp01","171","c","match",1,0.5807258,"baseline"
"pp01","172","c","match",1,0.6126162,"baseline"
"pp01","173","i","match",1,0.4206605,"baseline"
"pp01","174","i","mismatch",1,0.508175,"baseline"
"pp01","175","c","match",1,0.5759616,"baseline"
"pp01","176","c","mismatch",1,0.6386565,"baseline"
"pp01","177","i","mismatch",1,0.5565849,"baseline"
"pp01","178","i","mismatch",1,0.5389204,"baseline"
"pp01","179","i","match",1,0.5250178,"baseline"
"pp01","180","c","mismatch",1,0.4821282,"baseline"
"pp01","181","c","mismatch",1,0.9546823,"baseline"
"pp01","182","filler","match",1,0.6861684,"baseline"
"pp01","183","i","match",1,0.5162801,"baseline"
"pp01","184","i","mismatch",1,0.6072822,"baseline"
"pp01","185","i","mismatch",1,0.3802995,"baseline"
"pp01","186","c","mismatch",1,0.5698654,"baseline"
"pp01","187","c","mismatch",1,0.6164355,"baseline"
"pp01","188","i","match",1,0.4841826,"baseline"
"pp01","189","c","mismatch",1,0.5326357,"baseline"
"pp01","190","c","match",1,0.4889688,"baseline"
"pp01","191","i","mismatch",1,0.5700806,"baseline"
"pp01","192","filler","mismatch",1,0.5656355,"baseline"
"pp01","193","c","match",1,0.4521428,"baseline"
"pp01","194","c","mismatch",1,0.6184332,"baseline"
"pp01","195","i","match",1,0.4678748,"baseline"
"pp01","196","i","mismatch",1,0.3922674,"baseline"
"pp01","197","c","match",1,0.4501559,"baseline"
"pp01","198","c","mismatch",1,0.661816,"baseline"
"pp01","199","i","match",1,0.5435881,"baseline"
"pp01","200","i","mismatch",1,0.5039917,"baseline"
"pp01","201","c","mismatch",1,0.5655004,"baseline"
"pp01","202","c","mismatch",1,0.4326278,"baseline"
"pp01","203","c","mismatch",1,0.5329194,"baseline"
"pp01","204","i","mismatch",1,0.481929,"baseline"
"pp01","205","i","match",1,0.4710174,"baseline"
"pp01","206","c","match",1,0.50187,"baseline"
"pp01","207","c","mismatch",1,0.5763734,"baseline"
"pp01","208","c","match",1,0.5745738,"baseline"
"pp02","1","i","match",1,0.5123906,"adapt"
"pp02","2","i","match",1,0.6133283,"adapt"
"pp02","3","c","match",1,0.5654749,"adapt"
"pp02","4","c","match",1,0.445993,"adapt"
"pp02","5","i","mismatch",1,0.470095,"adapt"
"pp02","6","i","match",1,0.5818159,"adapt"
"pp02","7","c","match",1,0.5052002,"adapt"
"pp02","8","filler","mismatch",1,0.5662078,"adapt"
"pp02","9","c","mismatch",1,0.5506334,"adapt"
"pp02","10","c","match",1,0.5232532,"adapt"
"pp02","11","i","match",1,0.4801206,"adapt"
"pp02","12","c","mismatch",1,0.7216662,"adapt"
"pp02","13","i","mismatch",1,0.8611343,"adapt"
"pp02","14","c","match",1,0.4103025,"adapt"
"pp02","15","i","mismatch",1,0.4867437,"adapt"
"pp02","16","c","match",1,0.484485,"adapt"
"pp02","17","filler","match",1,0.4669019,"adapt"
"pp02","18","i","match",1,0.6083794,"adapt"
"pp02","19","i","match",1,0.5331371,"adapt"
"pp02","20","c","match",1,0.5345731,"adapt"
"pp02","21","filler","match",1,0.7278911,"adapt"
"pp02","22","c","mismatch",1,0.7094529,"adapt"
"pp02","23","c","mismatch",1,0.5281816,"adapt"
"pp02","24","i","match",1,0.4761389,"adapt"
"pp02","25","c","mismatch",1,0.5427702,"adapt"
"pp02","26","i","mismatch",1,0.4762569,"adapt"
"pp02","27","c","mismatch",1,0.5004783,"adapt"
"pp02","28","i","mismatch",1,0.5626737,"adapt"
"pp02","29","i","match",1,0.5469124,"adapt"
"pp02","30","c","match",1,0.5940568,"adapt"
"pp02","31","i","match",1,0.5684053,"adapt"
"pp02","32","c","mismatch",1,0.6660143,"adapt"
"pp02","33","i","mismatch",1,0.5230273,"adapt"
"pp02","34","i","mismatch",1,0.3808489,"adapt"
"pp02","35","i","mismatch",1,0.7201844,"adapt"
"pp02","36","c","mismatch",1,0.5511609,"adapt"
"pp02","37","i","mismatch",0,0.6964532,"adapt"
"pp02","38","i","mismatch",1,0.5052226,"adapt"
"pp02","39","i","mismatch",1,0.9939335,"adapt"
"pp02","40","c","mismatch",1,0.6133073,"adapt"
"pp02","41","c","match",1,0.5985773,"adapt"
"pp02","42","c","match",1,0.4889175,"adapt"
"pp02","43","i","match",1,0.5610784,"adapt"
"pp02","44","c","mismatch",1,0.539962,"adapt"
"pp02","45","c","mismatch",1,0.5885493,"adapt"
"pp02","46","i","match",1,0.5961085,"adapt"
"pp02","47","c","match",1,0.4886293,"adapt"
"pp02","48","i","match",1,0.5812644,"adapt"
"pp02","49","c","match",1,0.4967332,"adapt"
"pp02","50","i","mismatch",1,0.5237392,"adapt"
"pp02","51","c","mismatch",1,0.4854955,"adapt"
"pp02","52","filler","mismatch",1,0.4845598,"adapt"
"pp02","53","c","match",1,0.6374054,"adapt"
"pp02","54","c","match",1,1.2427144,"adapt"
"pp02","55","i","mismatch",0,0.5063211,"adapt"
"pp02","56","i","mismatch",1,0.5099457,"adapt"
"pp02","57","i","match",1,0.7399048,"adapt"
"pp02","58","c","match",1,0.5177493,"adapt"
"pp02","59","i","match",1,0.4843649,"adapt"
"pp02","60","i","match",1,0.6148311,"adapt"
"pp02","61","filler","mismatch",1,0.4761411,"adapt"
"pp02","62","c","match",1,0.5809699,"adapt"
"pp02","63","i","match",1,0.6546191,"adapt"
"pp02","64","i","mismatch",1,0.6565519,"adapt"
"pp02","65","filler","match",1,0.7692293,"adapt"
"pp02","66","i","match",1,1.0814686,"adapt"
"pp02","67","c","match",1,0.504918,"adapt"
"pp02","68","c","match",1,0.4923571,"adapt"
"pp02","69","i","match",1,0.673937,"adapt"
"pp02","70","i","mismatch",1,0.4921611,"adapt"
"pp02","71","c","match",1,0.4267414,"adapt"
"pp02","72","c","mismatch",1,0.5416289,"adapt"
"pp02","73","i","mismatch",1,0.4793979,"adapt"
"pp02","74","i","mismatch",1,0.486573,"adapt"
"pp02","75","i","match",1,0.4836373,"adapt"
"pp02","76","c","mismatch",1,0.4220285,"adapt"
"pp02","77","c","mismatch",1,0.4788913,"adapt"
"pp02","78","filler","match",1,0.4954698,"adapt"
"pp02","79","i","match",1,0.4776068,"adapt"
"pp02","80","i","mismatch",1,0.5338182,"adapt"
"pp02","81","i","mismatch",1,0.4939132,"adapt"
"pp02","82","c","mismatch",0,0.6093273,"adapt"
"pp02","83","c","mismatch",1,0.5609789,"adapt"
"pp02","84","i","match",1,0.5048877,"adapt"
"pp02","85","c","mismatch",1,0.584112,"adapt"
"pp02","86","c","match",1,0.5502502,"adapt"
"pp02","87","i","mismatch",1,0.5822638,"adapt"
"pp02","88","filler","mismatch",1,0.5897967,"adapt"
"pp02","89","c","match",1,0.5610071,"adapt"
"pp02","90","c","mismatch",1,0.7090204,"adapt"
"pp02","91","i","match",1,0.4201563,"adapt"
"pp02","92","i","mismatch",1,0.538027,"adapt"
"pp02","93","c","match",1,0.680199,"adapt"
"pp02","94","c","mismatch",1,0.5668613,"adapt"
"pp02","95","i","match",1,0.7898114,"adapt"
"pp02","96","i","mismatch",1,0.492508,"adapt"
"pp02","97","c","mismatch",1,0.5675489,"adapt"
"pp02","98","c","mismatch",1,0.5209508,"adapt"
"pp02","99","c","mismatch",1,0.5036299,"adapt"
"pp02","100","i","mismatch",0,0.9022032,"adapt"
"pp02","101","i","match",1,0.9258692,"adapt"
"pp02","102","c","match",1,0.6299226,"adapt"
"pp02","103","c","mismatch",1,0.6316334,"adapt"
"pp02","104","c","match",1,0.6448005,"adapt"
"pp02","105","i","match",1,1.191315123,"baseline"
"pp02","106","i","match",1,0.961042207,"baseline"
"pp02","107","c","match",1,1.332862222,"baseline"
"pp02","108","c","match",1,1.207987579,"baseline"
"pp02","109","i","mismatch",1,1.024791433,"baseline"
"pp02","110","i","match",0,1.695848358,"baseline"
"pp02","111","c","match",1,0.875076507,"baseline"
"pp02","112","filler","mismatch",1,1.172029808,"baseline"
"pp02","113","c","mismatch",1,1.098449889,"baseline"
"pp02","114","c","match",1,0.852584776,"baseline"
"pp02","115","i","match",0,1.237270478,"baseline"
"pp02","116","c","mismatch",1,0.811051647,"baseline"
"pp02","117","i","mismatch",1,1.950887173,"baseline"
"pp02","118","c","match",1,1.515829554,"baseline"
"pp02","119","i","mismatch",1,1.397572391,"baseline"
"pp02","120","c","match",1,0.796439649,"baseline"
"pp02","121","filler","match",0,1.625126725,"baseline"
"pp02","122","i","match",1,1.771257655,"baseline"
"pp02","123","i","match",1,1.103834191,"baseline"
"pp02","124","c","match",1,0.682765184,"baseline"
"pp02","125","filler","match",1,1.836446596,"baseline"
"pp02","126","c","mismatch",1,1.931504442,"baseline"
"pp02","127","c","mismatch",1,1.199393463,"baseline"
"pp02","128","i","match",1,1.234628545,"baseline"
"pp02","129","c","mismatch",1,1.616030049,"baseline"
"pp02","130","i","mismatch",1,1.931287711,"baseline"
"pp02","131","c","mismatch",1,1.148951694,"baseline"
"pp02","132","i","mismatch",0,1.442643074,"baseline"
"pp02","133","i","match",1,1.499615481,"baseline"
"pp02","134","c","match",1,0.721299567,"baseline"
"pp02","135","i","match",1,1.504841576,"baseline"
"pp02","136","c","mismatch",1,0.565064575,"baseline"
"pp02","137","i","mismatch",1,1.637042797,"baseline"
"pp02","138","i","mismatch",1,0.658927755,"baseline"
"pp02","139","i","mismatch",0,NA,"baseline"
"pp02","140","c","mismatch",1,1.118852088,"baseline"
"pp02","141","i","mismatch",0,0.764043219,"baseline"
"pp02","142","i","mismatch",0,0.943910991,"baseline"
"pp02","143","i","mismatch",1,1.74851521,"baseline"
"pp02","144","c","mismatch",1,1.284947223,"baseline"
"pp02","145","c","match",1,0.945082624,"baseline"
"pp02","146","c","match",1,0.91995047,"baseline"
"pp02","147","i","match",1,0.915126121,"baseline"
"pp02","148","c","mismatch",1,0.942136739,"baseline"
"pp02","149","c","mismatch",1,0.517607959,"baseline"
"pp02","150","i","match",0,0.668532277,"baseline"
"pp02","151","c","match",1,1.008908876,"baseline"
"pp02","152","i","match",1,1.114435148,"baseline"
"pp02","153","c","match",1,0.701446748,"baseline"
"pp02","154","i","mismatch",1,1.37872809,"baseline"
"pp02","155","c","mismatch",1,1.198719859,"baseline"
"pp02","156","filler","mismatch",1,0.899008331,"baseline"
"pp03","1","i","match",1,0.656486853,"adapt"
"pp03","2","i","match",1,0.535122824,"adapt"
"pp03","3","c","match",1,0.611204746,"adapt"
"pp03","4","c","match",1,0.602446593,"adapt"
"pp03","5","i","mismatch",1,0.738404228,"adapt"
"pp03","6","i","match",1,0.475384087,"adapt"
"pp03","7","c","match",1,0.592364548,"adapt"
"pp03","8","filler","mismatch",1,0.550356082,"adapt"
"pp03","9","c","mismatch",1,0.939628419,"adapt"
"pp03","10","c","match",1,0.599121947,"adapt"
"pp03","11","i","match",1,0.646688706,"adapt"
"pp03","12","c","mismatch",1,0.59793054,"adapt"
"pp03","13","i","mismatch",1,0.726219098,"adapt"
"pp03","14","c","match",1,0.5817763,"adapt"
"pp03","15","i","mismatch",1,0.526798377,"adapt"
"pp03","16","c","match",1,0.798812771,"adapt"
"pp03","17","filler","match",1,0.817350786,"adapt"
"pp03","18","i","match",1,0.577700689,"adapt"
"pp03","19","i","match",1,0.640849082,"adapt"
"pp03","20","c","match",1,0.620720279,"adapt"
"pp03","21","filler","match",1,0.657375436,"adapt"
"pp03","22","c","mismatch",1,0.764525992,"adapt"
"pp03","23","c","mismatch",1,0.769164265,"adapt"
"pp03","24","i","match",1,0.671903922,"adapt"
"pp03","25","c","mismatch",1,0.789417854,"adapt"
"pp03","26","i","mismatch",1,0.694314811,"adapt"
"pp03","27","c","mismatch",1,0.666668984,"adapt"
"pp03","28","i","mismatch",1,0.539152242,"adapt"
"pp03","29","i","match",1,0.585070792,"adapt"
"pp03","30","c","match",1,0.513623294,"adapt"
"pp03","31","i","match",1,0.59892402,"adapt"
"pp03","32","c","mismatch",1,0.745797749,"adapt"
"pp03","33","i","mismatch",1,0.596280728,"adapt"
"pp03","34","i","mismatch",1,0.555997138,"adapt"
"pp03","35","i","mismatch",1,0.624222321,"adapt"
"pp03","36","c","mismatch",1,0.530673495,"adapt"
"pp03","37","i","mismatch",1,0.619194291,"adapt"
"pp03","38","i","mismatch",1,1.175263214,"adapt"
"pp03","39","i","mismatch",1,0.683917111,"adapt"
"pp03","40","c","mismatch",1,0.615100715,"adapt"
"pp03","41","c","match",1,0.752985966,"adapt"
"pp03","42","c","match",1,0.646374333,"adapt"
"pp03","43","i","match",1,0.594883375,"adapt"
"pp03","44","c","mismatch",1,0.564479093,"adapt"
"pp03","45","c","mismatch",1,0.585629605,"adapt"
"pp03","46","i","match",1,0.653048969,"adapt"
"pp03","47","c","match",1,0.866436477,"adapt"
"pp03","48","i","match",0,0.731095075,"adapt"
"pp03","49","c","match",1,0.649827616,"adapt"
"pp03","50","i","mismatch",1,0.500107535,"adapt"
"pp03","51","c","mismatch",1,0.774476193,"adapt"
"pp03","52","filler","mismatch",1,0.660930729,"adapt"
"pp03","53","c","match",1,0.545090668,"adapt"
"pp03","54","c","match",1,0.79406126,"adapt"
"pp03","55","i","mismatch",1,0.596484428,"adapt"
"pp03","56","i","mismatch",1,0.761799936,"adapt"
"pp03","57","i","match",1,0.68667717,"adapt"
"pp03","58","c","match",1,0.738942511,"adapt"
"pp03","59","i","match",1,0.753494735,"adapt"
"pp03","60","i","match",0,0.679717355,"adapt"
"pp03","61","filler","mismatch",1,0.917866806,"adapt"
"pp03","62","c","match",1,0.782204937,"adapt"
"pp03","63","i","match",1,1.211684195,"adapt"
"pp03","64","i","mismatch",1,0.55512652,"adapt"
"pp03","65","filler","match",1,0.686375629,"adapt"
"pp03","66","i","match",1,0.444728627,"adapt"
"pp03","67","c","match",1,0.497258618,"adapt"
"pp03","68","c","match",1,0.87946945,"adapt"
"pp03","69","i","match",1,0.50819877,"adapt"
"pp03","70","i","mismatch",1,0.66238069,"adapt"
"pp03","71","c","match",1,0.561869803,"adapt"
"pp03","72","c","mismatch",1,0.581944072,"adapt"
"pp03","73","i","mismatch",1,0.633826071,"adapt"
"pp03","74","i","mismatch",1,0.692615918,"adapt"
"pp03","75","i","match",1,0.584119656,"adapt"
"pp03","76","c","mismatch",1,0.628921223,"adapt"
"pp03","77","c","mismatch",1,0.779063781,"adapt"
"pp03","78","filler","match",1,0.534271453,"adapt"
"pp03","79","i","match",1,0.64291239,"adapt"
"pp03","80","i","mismatch",1,0.747282035,"adapt"
"pp03","81","i","mismatch",1,0.507033989,"adapt"
"pp03","82","c","mismatch",1,0.661754191,"adapt"
"pp03","83","c","mismatch",1,0.587787225,"adapt"
"pp03","84","i","match",1,0.549379603,"adapt"
"pp03","85","c","mismatch",1,0.521736022,"adapt"
"pp03","86","c","match",1,0.791741001,"adapt"
"pp03","87","i","mismatch",1,1.124746489,"adapt"
"pp03","88","filler","mismatch",1,0.701213997,"adapt"
"pp03","89","c","match",1,0.671607193,"adapt"
"pp03","90","c","mismatch",1,0.685389527,"adapt"
"pp03","91","i","match",1,0.554758576,"adapt"
"pp03","92","i","mismatch",1,0.572748044,"adapt"
"pp03","93","c","match",1,0.517118279,"adapt"
"pp03","94","c","mismatch",1,0.584630671,"adapt"
"pp03","95","i","match",1,0.539255535,"adapt"
"pp03","96","i","mismatch",1,0.519446237,"adapt"
"pp03","97","c","mismatch",1,0.704754213,"adapt"
"pp03","98","c","mismatch",1,0.577747845,"adapt"
"pp03","99","c","mismatch",1,0.588611329,"adapt"
"pp03","100","i","mismatch",1,0.535468313,"adapt"
"pp03","101","i","match",1,0.691456269,"adapt"
"pp03","102","c","match",1,0.774753674,"adapt"
"pp03","103","c","mismatch",1,0.527639162,"adapt"
"pp03","104","c","match",1,0.580444388,"adapt"
"pp03","105","i","match",1,0.811651907,"baseline"
"pp03","106","i","match",1,0.926390381,"baseline"
"pp03","107","c","match",1,0.752197387,"baseline"
"pp03","108","c","match",1,0.962182939,"baseline"
"pp03","109","i","mismatch",1,1.851012268,"baseline"
"pp03","110","i","match",1,0.756966221,"baseline"
"pp03","111","c","match",1,1.087071786,"baseline"
"pp03","112","filler","mismatch",1,0.821418296,"baseline"
"pp03","113","c","mismatch",1,1.326497973,"baseline"
"pp03","114","c","match",1,0.66513746,"baseline"
"pp03","115","i","match",1,0.660328528,"baseline"
"pp03","116","c","mismatch",0,NA,"baseline"
"pp03","117","i","mismatch",1,0.734151461,"baseline"
"pp03","118","c","match",1,0.740332724,"baseline"
"pp03","119","i","mismatch",1,0.567690419,"baseline"
"pp03","120","c","match",0,0.59374995,"baseline"
"pp03","121","filler","match",1,0.934045986,"baseline"
"pp03","122","i","match",1,0.71026976,"baseline"
"pp03","123","i","match",1,0.760314285,"baseline"
"pp03","124","c","match",1,0.789624681,"baseline"
"pp03","125","filler","match",1,0.764244258,"baseline"
"pp03","126","c","mismatch",1,0.716286779,"baseline"
"pp03","127","c","mismatch",1,0.979743834,"baseline"
"pp03","128","i","match",1,1.349054179,"baseline"
"pp03","129","c","mismatch",1,0.664947554,"baseline"
"pp03","130","i","mismatch",1,0.828739319,"baseline"
"pp03","131","c","mismatch",1,0.814137692,"baseline"
"pp03","132","i","mismatch",1,0.717640504,"baseline"
"pp03","133","i","match",1,0.740414846,"baseline"
"pp03","134","c","match",1,0.789175578,"baseline"
"pp03","135","i","match",1,0.741607856,"baseline"
"pp03","136","c","mismatch",1,0.674553228,"baseline"
"pp03","137","i","mismatch",1,0.998347932,"baseline"
"pp03","138","i","mismatch",1,0.685924199,"baseline"
"pp03","139","i","mismatch",1,0.655169937,"baseline"
"pp03","140","c","mismatch",1,0.800479504,"baseline"
"pp03","141","i","mismatch",1,0.557999415,"baseline"
"pp03","142","i","mismatch",1,0.71495166,"baseline"
"pp03","143","i","mismatch",1,0.723437784,"baseline"
"pp03","144","c","mismatch",1,0.712178769,"baseline"
"pp03","145","c","match",1,0.775057058,"baseline"
"pp03","146","c","match",1,0.718458193,"baseline"
"pp03","147","i","match",1,0.654305092,"baseline"
"pp03","148","c","mismatch",1,0.804337941,"baseline"
"pp03","149","c","mismatch",1,0.687567917,"baseline"
"pp03","150","i","match",1,0.696124615,"baseline"
"pp03","151","c","match",1,0.618875987,"baseline"
"pp03","152","i","match",1,0.61315313,"baseline"
"pp03","153","c","match",1,0.512423145,"baseline"
"pp03","154","i","mismatch",1,0.540490808,"baseline"
"pp03","155","c","mismatch",1,0.789609924,"baseline"
"pp03","156","filler","mismatch",1,0.653922072,"baseline"
"pp03","157","c","match",1,0.523312613,"baseline"
"pp03","158","c","match",1,0.613376719,"baseline"
"pp03","159","i","mismatch",1,0.686937889,"baseline"
"pp03","160","i","mismatch",0,0.532836807,"baseline"
"pp03","161","i","match",1,0.448795174,"baseline"
"pp03","162","c","match",1,0.71886816,"baseline"
"pp03","163","i","match",1,0.786915947,"baseline"
"pp03","164","i","match",0,1.022454505,"baseline"
"pp03","165","filler","mismatch",1,0.72796699,"baseline"
"pp03","166","c","match",1,0.70646746,"baseline"
"pp03","167","i","match",1,0.818724319,"baseline"
"pp03","168","i","mismatch",1,1.01472127,"baseline"
"pp03","169","filler","match",1,0.688310862,"baseline"
"pp03","170","i","match",1,0.67836836,"baseline"
"pp03","171","c","match",1,0.555071262,"baseline"
"pp03","172","c","match",1,0.627846822,"baseline"
"pp03","173","i","match",1,0.670964894,"baseline"
"pp03","174","i","mismatch",1,0.796459068,"baseline"
"pp03","175","c","match",1,0.596047112,"baseline"
"pp03","176","c","mismatch",1,0.851596102,"baseline"
"pp03","177","i","mismatch",1,0.641447911,"baseline"
"pp03","178","i","mismatch",1,0.595591593,"baseline"
"pp03","179","i","match",1,0.793240923,"baseline"
"pp03","180","c","mismatch",1,0.774603464,"baseline"
"pp03","181","c","mismatch",1,0.693283075,"baseline"
"pp03","182","filler","match",1,0.822951983,"baseline"
"pp03","183","i","match",1,0.81805708,"baseline"
"pp03","184","i","mismatch",1,0.89963442,"baseline"
"pp03","185","i","mismatch",1,0.724245849,"baseline"
"pp03","186","c","mismatch",1,0.728022486,"baseline"
"pp03","187","c","mismatch",1,0.788544588,"baseline"
"pp03","188","i","match",1,1.240429923,"baseline"
"pp03","189","c","mismatch",1,0.702105064,"baseline"
"pp03","190","c","match",1,0.675321195,"baseline"
"pp03","191","i","mismatch",1,1.024195742,"baseline"
"pp03","192","filler","mismatch",1,0.530174267,"baseline"
"pp03","193","c","match",1,1.011441534,"baseline"
"pp03","194","c","mismatch",1,0.710741639,"baseline"
"pp03","195","i","match",1,0.792212477,"baseline"
"pp03","196","i","mismatch",1,1.509081497,"baseline"
"pp03","197","c","match",1,1.025115762,"baseline"
"pp03","198","c","mismatch",1,0.775598227,"baseline"
"pp03","199","i","match",1,0.997370812,"baseline"
"pp03","200","i","mismatch",1,0.802927757,"baseline"
"pp03","201","c","mismatch",1,0.688109727,"baseline"
"pp03","202","c","mismatch",1,0.741824388,"baseline"
"pp03","203","c","mismatch",1,0.666597687,"baseline"
"pp03","204","i","mismatch",1,0.639809005,"baseline"
"pp03","205","i","match",1,1.556067309,"baseline"
"pp03","206","c","match",1,0.68875419,"baseline"
"pp03","207","c","mismatch",1,0.705300113,"baseline"
"pp03","208","c","match",1,0.808390776,"baseline"
"pp04","1","i","match",1,0.8113803,"adapt"
"pp04","2","i","match",1,0.7398685,"adapt"
"pp04","3","c","match",1,0.6878846,"adapt"
"pp04","4","c","match",1,1.37193,"adapt"
"pp04","5","i","mismatch",1,0.595073,"adapt"
"pp04","6","i","match",1,0.7105267,"adapt"
"pp04","7","c","match",1,0.6688267,"adapt"
"pp04","8","filler","mismatch",1,0.6390447,"adapt"
"pp04","9","c","mismatch",1,0.6391841,"adapt"
"pp04","10","c","match",1,0.7625829,"adapt"
"pp04","11","i","match",1,0.4938214,"adapt"
"pp04","12","c","mismatch",1,0.5715188,"adapt"
"pp04","13","i","mismatch",1,1.2558334,"adapt"
"pp04","14","c","match",1,0.6214002,"adapt"
"pp04","15","i","mismatch",1,0.6085659,"adapt"
"pp04","16","c","match",1,0.6243519,"adapt"
"pp04","17","filler","match",1,0.6616663,"adapt"
"pp04","18","i","match",1,0.7990478,"adapt"
"pp04","19","i","match",1,0.6002423,"adapt"
"pp04","20","c","match",1,0.4909895,"adapt"
"pp04","21","filler","match",1,0.5216912,"adapt"
"pp04","22","c","mismatch",0,1.4503715,"adapt"
"pp04","23","c","mismatch",1,0.6147981,"adapt"
"pp04","24","i","match",1,0.6008858,"adapt"
"pp04","25","c","mismatch",1,0.6167495,"adapt"
"pp04","26","i","mismatch",0,NA,"adapt"
"pp04","27","c","mismatch",1,1.103733,"adapt"
"pp04","28","i","mismatch",1,0.561308,"adapt"
"pp04","29","i","match",1,0.8381711,"adapt"
"pp04","30","c","match",1,0.7464197,"adapt"
"pp04","31","i","match",1,0.4682991,"adapt"
"pp04","32","c","mismatch",1,0.778113,"adapt"
"pp04","33","i","mismatch",1,0.5858044,"adapt"
"pp04","34","i","mismatch",1,0.5896816,"adapt"
"pp04","35","i","mismatch",1,1.1326557,"adapt"
"pp04","36","c","mismatch",1,0.7823507,"adapt"
"pp04","37","i","mismatch",1,0.6854201,"adapt"
"pp04","38","i","mismatch",1,0.6830345,"adapt"
"pp04","39","i","mismatch",1,0.5020027,"adapt"
"pp04","40","c","mismatch",1,0.6525348,"adapt"
"pp04","41","c","match",1,0.7756444,"adapt"
"pp04","42","c","match",1,0.5025034,"adapt"
"pp04","43","i","match",1,0.6916719,"adapt"
"pp04","44","c","mismatch",1,0.5898751,"adapt"
"pp04","45","c","mismatch",1,0.6737709,"adapt"
"pp04","46","i","match",1,1.1776321,"adapt"
"pp04","47","c","match",1,0.5719924,"adapt"
"pp04","48","i","match",1,0.630092,"adapt"
"pp04","49","c","match",1,0.6827061,"adapt"
"pp04","50","i","mismatch",1,1.3320807,"adapt"
"pp04","51","c","mismatch",1,0.9234506,"adapt"
"pp04","52","filler","mismatch",1,0.5804818,"adapt"
"pp04","53","c","match",1,0.8830512,"adapt"
"pp04","54","c","match",1,0.7759744,"adapt"
"pp04","55","i","mismatch",1,0.6159446,"adapt"
"pp04","56","i","mismatch",1,0.8751731,"adapt"
"pp04","57","i","match",1,0.8004357,"adapt"
"pp04","58","c","match",1,0.5534677,"adapt"
"pp04","59","i","match",1,0.7969207,"adapt"
"pp04","60","i","match",1,0.7403733,"adapt"
"pp04","61","filler","mismatch",1,0.5653769,"adapt"
"pp04","62","c","match",1,1.0510513,"adapt"
"pp04","63","i","match",1,0.6595283,"adapt"
"pp04","64","i","mismatch",1,0.8353688,"adapt"
"pp04","65","filler","match",1,0.8053725,"adapt"
"pp04","66","i","match",1,0.5196536,"adapt"
"pp04","67","c","match",1,0.5826571,"adapt"
"pp04","68","c","match",1,0.4843318,"adapt"
"pp04","69","i","match",1,0.6099693,"adapt"
"pp04","70","i","mismatch",0,0.9632418,"adapt"
"pp04","71","c","match",1,0.637881,"adapt"
"pp04","72","c","mismatch",1,0.5606737,"adapt"
"pp04","73","i","mismatch",1,0.5430793,"adapt"
"pp04","74","i","mismatch",1,0.957295,"adapt"
"pp04","75","i","match",1,0.4871782,"adapt"
"pp04","76","c","mismatch",1,0.6916538,"adapt"
"pp04","77","c","mismatch",1,0.6565853,"adapt"
"pp04","78","filler","match",1,0.8875515,"adapt"
"pp04","79","i","match",1,0.5333603,"adapt"
"pp04","80","i","mismatch",1,0.8319628,"adapt"
"pp04","81","i","mismatch",1,0.6697023,"adapt"
"pp04","82","c","mismatch",1,0.6994665,"adapt"
"pp04","83","c","mismatch",1,0.8061413,"adapt"
"pp04","84","i","match",1,0.5388803,"adapt"
"pp04","85","c","mismatch",1,0.6667552,"adapt"
"pp04","86","c","match",1,0.6849635,"adapt"
"pp04","87","i","mismatch",1,0.8164411,"adapt"
"pp04","88","filler","mismatch",1,0.4933589,"adapt"
"pp04","89","c","match",1,0.5160446,"adapt"
"pp04","90","c","mismatch",1,0.5373143,"adapt"
"pp04","91","i","match",1,0.8950048,"adapt"
"pp04","92","i","mismatch",1,0.5203961,"adapt"
"pp04","93","c","match",1,0.5972567,"adapt"
"pp04","94","c","mismatch",1,0.6325237,"adapt"
"pp04","95","i","match",1,0.6549877,"adapt"
"pp04","96","i","mismatch",1,0.9295853,"adapt"
"pp04","97","c","mismatch",0,0.4936199,"adapt"
"pp04","98","c","mismatch",1,0.6459105,"adapt"
"pp04","99","c","mismatch",1,0.5245251,"adapt"
"pp04","100","i","mismatch",1,1.0617444,"adapt"
"pp04","101","i","match",1,0.6162287,"adapt"
"pp04","102","c","match",1,0.7802956,"adapt"
"pp04","103","c","mismatch",1,0.7859461,"adapt"
"pp04","104","c","match",1,0.7855093,"adapt"
"pp04","105","i","match",1,0.7655843,"baseline"
"pp04","106","i","match",1,1.3423875,"baseline"
"pp04","107","c","match",0,0.6410907,"baseline"
"pp04","108","c","match",1,0.7647275,"baseline"
"pp04","109","i","mismatch",0,NA,"baseline"
"pp04","110","i","match",1,0.8364336,"baseline"
"pp04","111","c","match",1,0.844096,"baseline"
"pp04","112","filler","mismatch",1,0.9828122,"baseline"
"pp04","113","c","mismatch",1,0.9821296,"baseline"
"pp04","114","c","match",1,0.617032,"baseline"
"pp04","115","i","match",1,1.2282245,"baseline"
"pp04","116","c","mismatch",1,0.6212097,"baseline"
"pp04","117","i","mismatch",1,0.882911,"baseline"
"pp04","118","c","match",1,0.9480514,"baseline"
"pp04","119","i","mismatch",1,0.6603764,"baseline"
"pp04","120","c","match",1,1.0124441,"baseline"
"pp04","121","filler","match",1,0.8919677,"baseline"
"pp04","122","i","match",1,1.3347984,"baseline"
"pp04","123","i","match",0,1.1543405,"baseline"
"pp04","124","c","match",1,0.6845324,"baseline"
"pp04","125","filler","match",0,0.8539347,"baseline"
"pp04","126","c","mismatch",1,1.7117879,"baseline"
"pp04","127","c","mismatch",1,0.779607,"baseline"
"pp04","128","i","match",0,1.1863656,"baseline"
"pp04","129","c","mismatch",1,1.0653162,"baseline"
"pp04","130","i","mismatch",1,0.6617312,"baseline"
"pp04","131","c","mismatch",0,0.9806109,"baseline"
"pp04","132","i","mismatch",1,1.2428517,"baseline"
"pp04","133","i","match",1,0.6419055,"baseline"
"pp04","134","c","match",1,0.5560589,"baseline"
"pp04","135","i","match",1,0.8497129,"baseline"
"pp04","136","c","mismatch",1,1.0074628,"baseline"
"pp04","137","i","mismatch",0,1.1060429,"baseline"
"pp04","138","i","mismatch",1,1.1279464,"baseline"
"pp04","139","i","mismatch",1,1.2447589,"baseline"
"pp04","140","c","mismatch",1,1.2158282,"baseline"
"pp04","141","i","mismatch",0,0.8771616,"baseline"
"pp04","142","i","mismatch",0,1.3301721,"baseline"
"pp04","143","i","mismatch",0,0.886671,"baseline"
"pp04","144","c","mismatch",1,1.1113066,"baseline"
"pp04","145","c","match",1,1.0311923,"baseline"
"pp04","146","c","match",1,0.6127485,"baseline"
"pp04","147","i","match",1,0.8445777,"baseline"
"pp04","148","c","mismatch",1,0.927498,"baseline"
"pp04","149","c","mismatch",1,0.7396508,"baseline"
"pp04","150","i","match",0,1.2117149,"baseline"
"pp04","151","c","match",1,1.2744926,"baseline"
"pp04","152","i","match",0,1.1212251,"baseline"
"pp04","153","c","match",1,0.5634232,"baseline"
"pp04","154","i","mismatch",1,0.9778229,"baseline"
"pp04","155","c","mismatch",1,0.7522714,"baseline"
"pp04","156","filler","mismatch",1,0.9720452,"baseline"
"pp04","157","c","match",1,0.56176,"baseline"
"pp04","158","c","match",1,0.7991753,"baseline"
"pp04","159","i","mismatch",0,1.0055902,"baseline"
"pp04","160","i","mismatch",0,0.7184811,"baseline"
"pp04","161","i","match",1,0.8145235,"baseline"
"pp04","162","c","match",1,0.5372495,"baseline"
"pp04","163","i","match",1,0.6716446,"baseline"
"pp04","164","i","match",0,1.0636875,"baseline"
"pp04","165","filler","mismatch",1,0.6658932,"baseline"
"pp04","166","c","match",1,0.7070928,"baseline"
"pp04","167","i","match",0,0.8529757,"baseline"
"pp04","168","i","mismatch",0,0.5819933,"baseline"
"pp04","169","filler","match",1,0.872399,"baseline"
"pp04","170","i","match",0,0.7530686,"baseline"
"pp04","171","c","match",1,0.8088567,"baseline"
"pp04","172","c","match",1,0.5866333,"baseline"
"pp04","173","i","match",0,0.951453,"baseline"
"pp04","174","i","mismatch",0,1.0074961,"baseline"
"pp04","175","c","match",1,0.6274019,"baseline"
"pp04","176","c","mismatch",1,0.6511191,"baseline"
"pp04","177","i","mismatch",0,1.2846346,"baseline"
"pp04","178","i","mismatch",0,1.134045,"baseline"
"pp04","179","i","match",1,0.9238361,"baseline"
"pp04","180","c","mismatch",1,0.6260075,"baseline"
"pp04","181","c","mismatch",0,1.3563859,"baseline"
"pp04","182","filler","match",0,0.6265242,"baseline"
"pp04","183","i","match",1,0.7941642,"baseline"
"pp04","184","i","mismatch",0,0.8919443,"baseline"
"pp04","185","i","mismatch",1,1.1811621,"baseline"
"pp04","186","c","mismatch",1,0.6564176,"baseline"
"pp04","187","c","mismatch",1,1.0507648,"baseline"
"pp04","188","i","match",1,0.9897045,"baseline"
"pp04","189","c","mismatch",1,1.0197842,"baseline"
"pp04","190","c","match",1,0.4903366,"baseline"
"pp04","191","i","mismatch",0,1.3637972,"baseline"
"pp04","192","filler","mismatch",1,0.6658278,"baseline"
"pp04","193","c","match",0,1.9096765,"baseline"
"pp04","194","c","mismatch",1,0.9845756,"baseline"
"pp04","195","i","match",0,0.9956255,"baseline"
"pp04","196","i","mismatch",1,1.4951003,"baseline"
"pp04","197","c","match",1,0.5678317,"baseline"
"pp04","198","c","mismatch",1,0.7195818,"baseline"
"pp04","199","i","match",1,0.629418,"baseline"
"pp04","200","i","mismatch",0,1.1456146,"baseline"
"pp04","201","c","mismatch",1,0.738155,"baseline"
"pp04","202","c","mismatch",1,0.7085158,"baseline"
"pp04","203","c","mismatch",1,0.5847858,"baseline"
"pp04","204","i","mismatch",1,0.6080604,"baseline"
"pp04","205","i","match",0,0.8226181,"baseline"
"pp04","206","c","match",1,0.6586108,"baseline"
"pp04","207","c","mismatch",0,0.6567785,"baseline"
"pp04","208","c","match",1,0.6986518,"baseline"
"pp05","1","i","match",0,1.3643828,"adapt"
"pp05","2","i","match",0,NA,"adapt"
"pp05","3","c","match",1,1.3805597,"adapt"
"pp05","4","c","match",0,NA,"adapt"
"pp05","5","i","mismatch",0,NA,"adapt"
"pp05","6","i","match",0,NA,"adapt"
"pp05","7","c","match",1,1.0686818,"adapt"
"pp05","8","filler","mismatch",1,0.9082791,"adapt"
"pp05","9","c","mismatch",1,1.1211588,"adapt"
"pp05","10","c","match",1,0.5910269,"adapt"
"pp05","11","i","match",0,0.7786882,"adapt"
"pp05","12","c","mismatch",1,0.889252,"adapt"
"pp05","13","i","mismatch",0,NA,"adapt"
"pp05","14","c","match",1,1.4415719,"adapt"
"pp05","15","i","mismatch",1,0.8258531,"adapt"
"pp05","16","c","match",1,0.5868722,"adapt"
"pp05","17","filler","match",1,0.782689,"adapt"
"pp05","18","i","match",0,1.1471993,"adapt"
"pp05","19","i","match",1,0.7997538,"adapt"
"pp05","20","c","match",1,1.0623187,"adapt"
"pp05","21","filler","match",1,0.4672619,"adapt"
"pp05","22","c","mismatch",1,0.6808151,"adapt"
"pp05","23","c","mismatch",1,0.6890661,"adapt"
"pp05","24","i","match",1,0.6849114,"adapt"
"pp05","25","c","mismatch",0,0.4372697,"adapt"
"pp05","26","i","mismatch",1,1.6047769,"adapt"
"pp05","27","c","mismatch",1,0.7220311,"adapt"
"pp05","28","i","mismatch",1,0.5415035,"adapt"
"pp05","29","i","match",1,1.1355514,"adapt"
"pp05","30","c","match",1,0.4441596,"adapt"
"pp05","31","i","match",1,0.5675393,"adapt"
"pp05","32","c","mismatch",1,0.6830562,"adapt"
"pp05","33","i","mismatch",1,0.6140952,"adapt"
"pp05","34","i","mismatch",1,0.5957466,"adapt"
"pp05","35","i","mismatch",1,0.554174,"adapt"
"pp05","36","c","mismatch",1,0.5165386,"adapt"
"pp05","37","i","mismatch",1,0.5190343,"adapt"
"pp05","38","i","mismatch",1,0.5041756,"adapt"
"pp05","39","i","mismatch",1,0.68917,"adapt"
"pp05","40","c","mismatch",1,0.5752063,"adapt"
"pp05","41","c","match",1,0.8453577,"adapt"
"pp05","42","c","match",1,0.7207989,"adapt"
"pp05","43","i","match",1,0.4080769,"adapt"
"pp05","44","c","mismatch",1,0.5184165,"adapt"
"pp05","45","c","mismatch",1,0.5301039,"adapt"
"pp05","46","i","match",1,0.753685,"adapt"
"pp05","47","c","match",1,0.7489376,"adapt"
"pp05","48","i","match",1,0.7845396,"adapt"
"pp05","49","c","match",1,0.8512382,"adapt"
"pp05","50","i","mismatch",1,0.472477,"adapt"
"pp05","51","c","mismatch",0,0.6335506,"adapt"
"pp05","52","filler","mismatch",1,0.665312,"adapt"
"pp05","53","c","match",1,0.6960317,"adapt"
"pp05","54","c","match",1,0.624147,"adapt"
"pp05","55","i","mismatch",1,0.943657,"adapt"
"pp05","56","i","mismatch",1,0.5901304,"adapt"
"pp05","57","i","match",1,0.5967218,"adapt"
"pp05","58","c","match",1,0.6030905,"adapt"
"pp05","59","i","match",0,0.8569404,"adapt"
"pp05","60","i","match",1,0.9046049,"adapt"
"pp05","61","filler","mismatch",1,0.8848062,"adapt"
"pp05","62","c","match",1,0.5957143,"adapt"
"pp05","63","i","match",1,0.9213931,"adapt"
"pp05","64","i","mismatch",1,0.7738897,"adapt"
"pp05","65","filler","match",1,0.9467584,"adapt"
"pp05","66","i","match",1,0.4431324,"adapt"
"pp05","67","c","match",1,0.4758017,"adapt"
"pp05","68","c","match",1,0.4577696,"adapt"
"pp05","69","i","match",1,0.7543909,"adapt"
"pp05","70","i","mismatch",1,0.7959101,"adapt"
"pp05","71","c","match",0,0.6612594,"adapt"
"pp05","72","c","mismatch",1,1.3908917,"adapt"
"pp05","73","i","mismatch",1,0.5035227,"adapt"
"pp05","74","i","mismatch",1,0.6978618,"adapt"
"pp05","75","i","match",1,1.180207,"adapt"
"pp05","76","c","mismatch",1,0.5682464,"adapt"
"pp05","77","c","mismatch",1,0.6723795,"adapt"
"pp05","78","filler","match",1,0.8426992,"adapt"
"pp05","79","i","match",1,0.782962,"adapt"
"pp05","80","i","mismatch",1,0.5007674,"adapt"
"pp05","81","i","mismatch",1,0.4558299,"adapt"
"pp05","82","c","mismatch",1,0.9644613,"adapt"
"pp05","83","c","mismatch",1,0.8539665,"adapt"
"pp05","84","i","match",1,0.6614007,"adapt"
"pp05","85","c","mismatch",1,0.7904406,"adapt"
"pp05","86","c","match",1,0.4596339,"adapt"
"pp05","87","i","mismatch",1,0.5190448,"adapt"
"pp05","88","filler","mismatch",1,0.5599631,"adapt"
"pp05","89","c","match",1,0.7272326,"adapt"
"pp05","90","c","mismatch",1,0.7578177,"adapt"
"pp05","91","i","match",1,0.7577076,"adapt"
"pp05","92","i","mismatch",1,0.6545691,"adapt"
"pp05","93","c","match",1,0.4823084,"adapt"
"pp05","94","c","mismatch",1,0.6228726,"adapt"
"pp05","95","i","match",1,1.0301323,"adapt"
"pp05","96","i","mismatch",1,1.2484469,"adapt"
"pp05","97","c","mismatch",0,0.7311145,"adapt"
"pp05","98","c","mismatch",1,0.9265427,"adapt"
"pp05","99","c","mismatch",1,0.6535795,"adapt"
"pp05","100","i","mismatch",1,0.7700676,"adapt"
"pp05","101","i","match",1,0.5630882,"adapt"
"pp05","102","c","match",1,0.5860549,"adapt"
"pp05","103","c","mismatch",1,0.6976389,"adapt"
"pp05","104","c","match",1,0.4580483,"adapt"
"pp05","105","i","match",1,0.5513697,"baseline"
"pp05","106","i","match",1,0.5010689,"baseline"
"pp05","107","c","match",1,0.6340343,"baseline"
"pp05","108","c","match",1,0.4562343,"baseline"
"pp05","109","i","mismatch",1,0.3840147,"baseline"
"pp05","110","i","match",1,0.4921984,"baseline"
"pp05","111","c","match",1,0.4896916,"baseline"
"pp05","112","filler","mismatch",1,0.5490892,"baseline"
"pp05","113","c","mismatch",1,0.4885972,"baseline"
"pp05","114","c","match",1,0.4468921,"baseline"
"pp05","115","i","match",1,0.6364818,"baseline"
"pp05","116","c","mismatch",1,0.3854986,"baseline"
"pp05","117","i","mismatch",1,0.425485,"baseline"
"pp05","118","c","match",1,0.5994887,"baseline"
"pp05","119","i","mismatch",1,0.3684177,"baseline"
"pp05","120","c","match",1,0.5568403,"baseline"
"pp05","121","filler","match",1,0.4945468,"baseline"
"pp05","122","i","match",1,0.4954111,"baseline"
"pp05","123","i","match",1,0.4483344,"baseline"
"pp05","124","c","match",1,0.4267967,"baseline"
"pp05","125","filler","match",1,0.4326582,"baseline"
"pp05","126","c","mismatch",1,0.4815397,"baseline"
"pp05","127","c","mismatch",1,0.4641397,"baseline"
"pp05","128","i","match",1,0.7537183,"baseline"
"pp05","129","c","mismatch",1,0.606506,"baseline"
"pp05","130","i","mismatch",1,0.5365264,"baseline"
"pp05","131","c","mismatch",0,0.5396621,"baseline"
"pp05","132","i","mismatch",0,0.7639076,"baseline"
"pp05","133","i","match",1,0.6769983,"baseline"
"pp05","134","c","match",1,0.5619022,"baseline"
"pp05","135","i","match",0,0.44367,"baseline"
"pp05","136","c","mismatch",1,0.8132791,"baseline"
"pp05","137","i","mismatch",1,0.767566,"baseline"
"pp05","138","i","mismatch",1,0.5752117,"baseline"
"pp05","139","i","mismatch",1,0.4948079,"baseline"
"pp05","140","c","mismatch",1,0.5176994,"baseline"
"pp05","141","i","mismatch",1,0.7615384,"baseline"
"pp05","142","i","mismatch",1,0.4165272,"baseline"
"pp05","143","i","mismatch",1,0.6527689,"baseline"
"pp05","144","c","mismatch",1,0.538054,"baseline"
"pp05","145","c","match",1,0.509967,"baseline"
"pp05","146","c","match",1,0.4182173,"baseline"
"pp05","147","i","match",1,0.3878711,"baseline"
"pp05","148","c","mismatch",1,0.5860169,"baseline"
"pp05","149","c","mismatch",1,0.4826271,"baseline"
"pp05","150","i","match",1,0.4557162,"baseline"
"pp05","151","c","match",1,0.3725194,"baseline"
"pp05","152","i","match",1,0.3999903,"baseline"
"pp05","153","c","match",1,0.4277629,"baseline"
"pp05","154","i","mismatch",1,0.8518493,"baseline"
"pp05","155","c","mismatch",1,0.5824954,"baseline"
"pp05","156","filler","mismatch",1,0.4435499,"baseline"
"pp05","157","c","match",1,0.5379811,"baseline"
"pp05","158","c","match",1,0.3976424,"baseline"
"pp05","159","i","mismatch",1,0.4585699,"baseline"
"pp05","160","i","mismatch",1,0.6714643,"baseline"
"pp05","161","i","match",1,0.4928891,"baseline"
"pp05","162","c","match",1,0.52451,"baseline"
"pp05","163","i","match",1,0.5983414,"baseline"
"pp05","164","i","match",1,0.5515461,"baseline"
"pp05","165","filler","mismatch",1,0.6580099,"baseline"
"pp05","166","c","match",1,0.4443642,"baseline"
"pp05","167","i","match",1,0.4517174,"baseline"
"pp05","168","i","mismatch",1,0.5708954,"baseline"
"pp05","169","filler","match",0,0.4051349,"baseline"
"pp05","170","i","match",1,0.354207,"baseline"
"pp05","171","c","match",1,0.464251,"baseline"
"pp05","172","c","match",1,0.4792169,"baseline"
"pp05","173","i","match",1,0.6929144,"baseline"
"pp05","174","i","mismatch",1,0.4471108,"baseline"
"pp05","175","c","match",1,0.4247029,"baseline"
"pp05","176","c","mismatch",1,0.463843,"baseline"
"pp05","177","i","mismatch",1,0.5386629,"baseline"
"pp05","178","i","mismatch",1,0.5681136,"baseline"
"pp05","179","i","match",1,0.3220465,"baseline"
"pp05","180","c","mismatch",1,0.4764754,"baseline"
"pp05","181","c","mismatch",1,0.6151553,"baseline"
"pp05","182","filler","match",1,0.6705205,"baseline"
"pp05","183","i","match",1,0.3509195,"baseline"
"pp05","184","i","mismatch",1,0.4425821,"baseline"
"pp05","185","i","mismatch",1,0.3354114,"baseline"
"pp05","186","c","mismatch",1,0.5139279,"baseline"
"pp05","187","c","mismatch",1,0.5135104,"baseline"
"pp05","188","i","match",1,0.414916,"baseline"
"pp05","189","c","mismatch",1,0.4035252,"baseline"
"pp05","190","c","match",1,0.4841504,"baseline"
"pp05","191","i","mismatch",1,0.6691466,"baseline"
"pp05","192","filler","mismatch",1,0.4962907,"baseline"
"pp05","193","c","match",1,0.3518233,"baseline"
"pp05","194","c","mismatch",1,0.4179448,"baseline"
"pp05","195","i","match",1,0.7099281,"baseline"
"pp05","196","i","mismatch",1,0.4379661,"baseline"
"pp05","197","c","match",1,0.3779154,"baseline"
"pp05","198","c","mismatch",1,0.543192,"baseline"
"pp05","199","i","match",1,0.5180062,"baseline"
"pp05","200","i","mismatch",0,0.4974181,"baseline"
"pp05","201","c","mismatch",1,0.513526,"baseline"
"pp05","202","c","mismatch",1,0.4278081,"baseline"
"pp05","203","c","mismatch",1,0.7383756,"baseline"
"pp05","204","i","mismatch",1,0.5634266,"baseline"
"pp05","205","i","match",1,0.4135081,"baseline"
"pp05","206","c","match",1,0.3777817,"baseline"
"pp05","207","c","mismatch",1,0.5781946,"baseline"
"pp05","208","c","match",0,0.372922,"baseline"
"pp06","1","i","match",1,0.7048506,"adapt"
"pp06","2","i","match",1,0.6992747,"adapt"
"pp06","3","c","match",1,0.7120772,"adapt"
"pp06","4","c","match",1,0.5500272,"adapt"
"pp06","5","i","mismatch",1,0.4347459,"adapt"
"pp06","6","i","match",1,0.8076195,"adapt"
"pp06","7","c","match",1,0.7567697,"adapt"
"pp06","8","filler","mismatch",1,0.6663527,"adapt"
"pp06","9","c","mismatch",1,0.8905025,"adapt"
"pp06","10","c","match",1,0.655688,"adapt"
"pp06","11","i","match",0,1.1632654,"adapt"
"pp06","12","c","mismatch",1,0.5680926,"adapt"
"pp06","13","i","mismatch",0,0.949424,"adapt"
"pp06","14","c","match",1,0.7975138,"adapt"
"pp06","15","i","mismatch",1,0.9061368,"adapt"
"pp06","16","c","match",1,1.3387725,"adapt"
"pp06","17","filler","match",1,1.1340552,"adapt"
"pp06","18","i","match",1,1.0727917,"adapt"
"pp06","19","i","match",1,1.0593459,"adapt"
"pp06","20","c","match",1,0.8162742,"adapt"
"pp06","21","filler","match",1,0.8463562,"adapt"
"pp06","22","c","mismatch",1,0.952007,"adapt"
"pp06","23","c","mismatch",1,1.0515506,"adapt"
"pp06","24","i","match",1,0.7500163,"adapt"
"pp06","25","c","mismatch",1,0.7368237,"adapt"
"pp06","26","i","mismatch",1,1.0342055,"adapt"
"pp06","27","c","mismatch",1,0.9221585,"adapt"
"pp06","28","i","mismatch",1,1.4153382,"adapt"
"pp06","29","i","match",1,0.6621167,"adapt"
"pp06","30","c","match",1,0.7058968,"adapt"
"pp06","31","i","match",1,0.7229939,"adapt"
"pp06","32","c","mismatch",1,0.688471,"adapt"
"pp06","33","i","mismatch",1,0.8618746,"adapt"
"pp06","34","i","mismatch",1,0.9319736,"adapt"
"pp06","35","i","mismatch",1,0.6215036,"adapt"
"pp06","36","c","mismatch",1,0.904191,"adapt"
"pp06","37","i","mismatch",1,0.4965711,"adapt"
"pp06","38","i","mismatch",1,0.6829546,"adapt"
"pp06","39","i","mismatch",1,0.4897838,"adapt"
"pp06","40","c","mismatch",1,0.7874387,"adapt"
"pp06","41","c","match",1,1.2433871,"adapt"
"pp06","42","c","match",1,0.7950953,"adapt"
"pp06","43","i","match",1,1.2063543,"adapt"
"pp06","44","c","mismatch",1,1.1278629,"adapt"
"pp06","45","c","mismatch",1,0.7836777,"adapt"
"pp06","46","i","match",1,0.7535165,"adapt"
"pp06","47","c","match",1,0.9344476,"adapt"
"pp06","48","i","match",0,1.0393117,"adapt"
"pp06","49","c","match",1,0.7679306,"adapt"
"pp06","50","i","mismatch",1,0.8437282,"adapt"
"pp06","51","c","mismatch",1,0.6537652,"adapt"
"pp06","52","filler","mismatch",1,0.9495446,"adapt"
"pp06","53","c","match",1,0.74576,"adapt"
"pp06","54","c","match",1,0.9221736,"adapt"
"pp06","55","i","mismatch",1,0.6345606,"adapt"
"pp06","56","i","mismatch",1,1.2564573,"adapt"
"pp06","57","i","match",0,0.8518476,"adapt"
"pp06","58","c","match",1,0.7627143,"adapt"
"pp06","59","i","match",1,0.8444254,"adapt"
"pp06","60","i","match",1,0.6149557,"adapt"
"pp06","61","filler","mismatch",1,0.5991033,"adapt"
"pp06","62","c","match",1,0.8029612,"adapt"
"pp06","63","i","match",1,0.7186237,"adapt"
"pp06","64","i","mismatch",1,0.6611237,"adapt"
"pp06","65","filler","match",1,0.8207372,"adapt"
"pp06","66","i","match",1,0.7347658,"adapt"
"pp06","67","c","match",1,1.3514629,"adapt"
"pp06","68","c","match",1,0.79391,"adapt"
"pp06","69","i","match",1,0.6497939,"adapt"
"pp06","70","i","mismatch",1,1.0117452,"adapt"
"pp06","71","c","match",1,0.7581637,"adapt"
"pp06","72","c","mismatch",1,0.7377086,"adapt"
"pp06","73","i","mismatch",1,0.7058004,"adapt"
"pp06","74","i","mismatch",1,0.7759044,"adapt"
"pp06","75","i","match",1,0.6969125,"adapt"
"pp06","76","c","mismatch",1,0.8824948,"adapt"
"pp06","77","c","mismatch",1,0.753791,"adapt"
"pp06","78","filler","match",1,0.9581045,"adapt"
"pp06","79","i","match",1,0.7768904,"adapt"
"pp06","80","i","mismatch",1,1.0363608,"adapt"
"pp06","81","i","mismatch",1,1.0190392,"adapt"
"pp06","82","c","mismatch",1,0.8938506,"adapt"
"pp06","83","c","mismatch",1,0.8302567,"adapt"
"pp06","84","i","match",1,0.7601475,"adapt"
"pp06","85","c","mismatch",1,0.7124414,"adapt"
"pp06","86","c","match",0,0.7991025,"adapt"
"pp06","87","i","mismatch",1,1.0537977,"adapt"
"pp06","88","filler","mismatch",1,0.7771268,"adapt"
"pp06","89","c","match",0,NA,"adapt"
"pp06","90","c","mismatch",1,0.7813751,"adapt"
"pp06","91","i","match",1,0.5304058,"adapt"
"pp06","92","i","mismatch",1,0.9851673,"adapt"
"pp06","93","c","match",1,0.7586388,"adapt"
"pp06","94","c","mismatch",1,0.7130977,"adapt"
"pp06","95","i","match",1,0.8921636,"adapt"
"pp06","96","i","mismatch",1,0.9060669,"adapt"
"pp06","97","c","mismatch",1,0.5817253,"adapt"
"pp06","98","c","mismatch",1,0.7175452,"adapt"
"pp06","99","c","mismatch",1,0.6505362,"adapt"
"pp06","100","i","mismatch",1,0.5139058,"adapt"
"pp06","101","i","match",1,0.9541339,"adapt"
"pp06","102","c","match",1,0.691717,"adapt"
"pp06","103","c","mismatch",1,0.7884075,"adapt"
"pp06","104","c","match",1,0.7752444,"adapt"
"pp06","105","i","match",0,0.6447637,"baseline"
"pp06","106","i","match",1,0.499092,"baseline"
"pp06","107","c","match",0,0.6408444,"baseline"
"pp06","108","c","match",1,0.4637675,"baseline"
"pp06","109","i","mismatch",0,0.4749355,"baseline"
"pp06","110","i","match",1,0.5362983,"baseline"
"pp06","111","c","match",0,0.5406362,"baseline"
"pp06","112","filler","mismatch",0,0.6256625,"baseline"
"pp06","113","c","mismatch",1,0.7359842,"baseline"
"pp06","114","c","match",1,0.3988443,"baseline"
"pp06","115","i","match",1,0.5044559,"baseline"
"pp06","116","c","mismatch",1,0.4240063,"baseline"
"pp06","117","i","mismatch",0,0.5895061,"baseline"
"pp06","118","c","match",1,0.5886549,"baseline"
"pp06","119","i","mismatch",1,0.7560645,"baseline"
"pp06","120","c","match",1,0.5861742,"baseline"
"pp06","121","filler","match",0,0.6668208,"baseline"
"pp06","122","i","match",1,0.4734617,"baseline"
"pp06","123","i","match",1,0.5249578,"baseline"
"pp06","124","c","match",1,0.8910896,"baseline"
"pp06","125","filler","match",0,0.4307784,"baseline"
"pp06","126","c","mismatch",1,0.4931917,"baseline"
"pp06","127","c","mismatch",1,0.5399889,"baseline"
"pp06","128","i","match",1,0.413838,"baseline"
"pp06","129","c","mismatch",0,0.5061091,"baseline"
"pp06","130","i","mismatch",1,0.4654328,"baseline"
"pp06","131","c","mismatch",0,0.9594843,"baseline"
"pp06","132","i","mismatch",1,0.4839842,"baseline"
"pp06","133","i","match",1,0.497971,"baseline"
"pp06","134","c","match",0,0.4912004,"baseline"
"pp06","135","i","match",0,0.5875902,"baseline"
"pp06","136","c","mismatch",1,0.3983156,"baseline"
"pp06","137","i","mismatch",0,0.5994928,"baseline"
"pp06","138","i","mismatch",0,0.5422006,"baseline"
"pp06","139","i","mismatch",0,0.477306,"baseline"
"pp06","140","c","mismatch",1,0.5992327,"baseline"
"pp06","141","i","mismatch",1,0.4234974,"baseline"
"pp06","142","i","mismatch",1,0.6506827,"baseline"
"pp06","143","i","mismatch",0,0.6054697,"baseline"
"pp06","144","c","mismatch",0,0.4571984,"baseline"
"pp06","145","c","match",0,0.6822863,"baseline"
"pp06","146","c","match",0,0.6867905,"baseline"
"pp06","147","i","match",1,0.4687391,"baseline"
"pp06","148","c","mismatch",1,0.5367764,"baseline"
"pp06","149","c","mismatch",0,0.4754708,"baseline"
"pp06","150","i","match",1,0.6141894,"baseline"
"pp06","151","c","match",1,0.5803062,"baseline"
"pp06","152","i","match",0,0.7225045,"baseline"
"pp06","153","c","match",1,0.578513,"baseline"
"pp06","154","i","mismatch",1,0.7797384,"baseline"
"pp06","155","c","mismatch",0,0.7807969,"baseline"
"pp06","156","filler","mismatch",1,0.4036056,"baseline"
"pp06","157","c","match",1,0.509018,"baseline"
"pp06","158","c","match",1,0.7290337,"baseline"
"pp06","159","i","mismatch",1,0.4868882,"baseline"
"pp06","160","i","mismatch",0,0.4790911,"baseline"
"pp06","161","i","match",0,0.6003181,"baseline"
"pp06","162","c","match",0,0.5011359,"baseline"
"pp06","163","i","match",1,0.3528634,"baseline"
"pp06","164","i","match",1,0.5308828,"baseline"
"pp06","165","filler","mismatch",1,0.6644933,"baseline"
"pp06","166","c","match",0,0.484498,"baseline"
"pp06","167","i","match",1,0.7023597,"baseline"
"pp06","168","i","mismatch",1,0.8890633,"baseline"
"pp06","169","filler","match",1,0.8457469,"baseline"
"pp06","170","i","match",1,0.3563291,"baseline"
"pp06","171","c","match",1,0.505009,"baseline"
"pp06","172","c","match",1,0.5846725,"baseline"
"pp06","173","i","match",1,0.5992576,"baseline"
"pp06","174","i","mismatch",1,0.4058687,"baseline"
"pp06","175","c","match",1,0.4756833,"baseline"
"pp06","176","c","mismatch",1,0.7088729,"baseline"
"pp06","177","i","mismatch",1,0.6906569,"baseline"
"pp06","178","i","mismatch",1,0.5915345,"baseline"
"pp06","179","i","match",1,0.4403757,"baseline"
"pp06","180","c","mismatch",0,0.7685175,"baseline"
"pp06","181","c","mismatch",1,0.4951262,"baseline"
"pp06","182","filler","match",1,0.7003077,"baseline"
"pp06","183","i","match",1,0.5292012,"baseline"
"pp06","184","i","mismatch",1,0.4668261,"baseline"
"pp06","185","i","mismatch",1,0.3729994,"baseline"
"pp06","186","c","mismatch",1,0.4472391,"baseline"
"pp06","187","c","mismatch",1,0.6203584,"baseline"
"pp06","188","i","match",0,0.6260795,"baseline"
"pp06","189","c","mismatch",0,0.4634485,"baseline"
"pp06","190","c","match",1,0.5529015,"baseline"
"pp06","191","i","mismatch",1,1.0307273,"baseline"
"pp06","192","filler","mismatch",1,0.5813248,"baseline"
"pp06","193","c","match",0,0.7655239,"baseline"
"pp06","194","c","mismatch",1,0.4903745,"baseline"
"pp06","195","i","match",0,0.7820022,"baseline"
"pp06","196","i","mismatch",0,0.436747,"baseline"
"pp06","197","c","match",1,0.4386082,"baseline"
"pp06","198","c","mismatch",1,0.8005956,"baseline"
"pp06","199","i","match",1,0.5654139,"baseline"
"pp06","200","i","mismatch",0,0.7114638,"baseline"
"pp06","201","c","mismatch",1,0.4807338,"baseline"
"pp06","202","c","mismatch",1,0.7027032,"baseline"
"pp06","203","c","mismatch",1,0.5883912,"baseline"
"pp06","204","i","mismatch",1,0.7527886,"baseline"
"pp06","205","i","match",1,0.4889057,"baseline"
"pp06","206","c","match",1,0.7011843,"baseline"
"pp06","207","c","mismatch",1,0.4682984,"baseline"
"pp06","208","c","match",1,0.4747529,"baseline"
"pp07","1","i","match",0,1.8489837,"adapt"
"pp07","2","i","match",0,NA,"adapt"
"pp07","3","c","match",0,NA,"adapt"
"pp07","4","c","match",1,1.3200296,"adapt"
"pp07","5","i","mismatch",0,NA,"adapt"
"pp07","6","i","match",0,NA,"adapt"
"pp07","7","c","match",1,0.0380099,"adapt"
"pp07","8","filler","mismatch",0,NA,"adapt"
"pp07","9","c","mismatch",1,1.2238502,"adapt"
"pp07","10","c","match",1,1.4454269,"adapt"
"pp07","11","i","match",1,0.3519764,"adapt"
"pp07","12","c","mismatch",1,1.2458061,"adapt"
"pp07","13","i","mismatch",1,0.2175038,"adapt"
"pp07","14","c","match",0,NA,"adapt"
"pp07","15","i","mismatch",0,1.27546,"adapt"
"pp07","16","c","match",1,0.9159881,"adapt"
"pp07","17","filler","match",1,0.5812012,"adapt"
"pp07","18","i","match",1,0.3215263,"adapt"
"pp07","19","i","match",1,0.9737589,"adapt"
"pp07","20","c","match",1,1.0072588,"adapt"
"pp07","21","filler","match",1,1.6879489,"adapt"
"pp07","22","c","mismatch",1,1.4392817,"adapt"
"pp07","23","c","mismatch",1,1.1805135,"adapt"
"pp07","24","i","match",1,1.2944648,"adapt"
"pp07","25","c","mismatch",1,1.2281639,"adapt"
"pp07","26","i","mismatch",0,NA,"adapt"
"pp07","27","c","mismatch",1,1.2050376,"adapt"
"pp07","28","i","mismatch",1,1.5476654,"adapt"
"pp07","29","i","match",1,0.96608,"adapt"
"pp07","30","c","match",1,1.1404025,"adapt"
"pp07","31","i","match",1,1.7373015,"adapt"
"pp07","32","c","mismatch",1,1.0617125,"adapt"
"pp07","33","i","mismatch",1,1.4580964,"adapt"
"pp07","34","i","mismatch",1,1.7193054,"adapt"
"pp07","35","i","mismatch",0,NA,"adapt"
"pp07","36","c","mismatch",1,1.5668968,"adapt"
"pp07","37","i","mismatch",1,1.2033141,"adapt"
"pp07","38","i","mismatch",0,1.2532526,"adapt"
"pp07","39","i","mismatch",0,NA,"adapt"
"pp07","40","c","mismatch",1,1.3279432,"adapt"
"pp07","41","c","match",1,1.5900613,"adapt"
"pp07","42","c","match",1,1.1653704,"adapt"
"pp07","43","i","match",1,1.2533409,"adapt"
"pp07","44","c","mismatch",1,1.0768721,"adapt"
"pp07","45","c","mismatch",1,1.4642351,"adapt"
"pp07","46","i","match",1,1.5502687,"adapt"
"pp07","47","c","match",1,1.2463994,"adapt"
"pp07","48","i","match",1,1.7641543,"adapt"
"pp07","49","c","match",1,1.0230637,"adapt"
"pp07","50","i","mismatch",1,0.985879,"adapt"
"pp07","51","c","mismatch",1,0.9425693,"adapt"
"pp07","52","filler","mismatch",0,NA,"adapt"
"pp07","53","c","match",1,0.94563,"adapt"
"pp07","54","c","match",1,0.8715696,"adapt"
"pp07","55","i","mismatch",1,1.2321826,"adapt"
"pp07","56","i","mismatch",0,1.661404,"adapt"
"pp07","57","i","match",1,1.2320108,"adapt"
"pp07","58","c","match",1,1.4077215,"adapt"
"pp07","59","i","match",1,1.2477253,"adapt"
"pp07","60","i","match",1,1.2741134,"adapt"
"pp07","61","filler","mismatch",1,1.0318195,"adapt"
"pp07","62","c","match",1,0.8640992,"adapt"
"pp07","63","i","match",1,1.3708857,"adapt"
"pp07","64","i","mismatch",1,1.0933104,"adapt"
"pp07","65","filler","match",1,1.5471477,"adapt"
"pp07","66","i","match",1,1.342627,"adapt"
"pp07","67","c","match",1,1.1518309,"adapt"
"pp07","68","c","match",1,1.2312228,"adapt"
"pp07","69","i","match",1,1.0327753,"adapt"
"pp07","70","i","mismatch",0,NA,"adapt"
"pp07","71","c","match",1,1.0274437,"adapt"
"pp07","72","c","mismatch",1,0.9228314,"adapt"
"pp07","73","i","mismatch",1,0.8769507,"adapt"
"pp07","74","i","mismatch",1,1.0847046,"adapt"
"pp07","75","i","match",1,1.3547932,"adapt"
"pp07","76","c","mismatch",1,1.0459893,"adapt"
"pp07","77","c","mismatch",1,1.2578606,"adapt"
"pp07","78","filler","match",1,1.9648554,"adapt"
"pp07","79","i","match",1,1.5183447,"adapt"
"pp07","80","i","mismatch",1,1.7022697,"adapt"
"pp07","81","i","mismatch",1,0.9652944,"adapt"
"pp07","82","c","mismatch",1,0.9804489,"adapt"
"pp07","83","c","mismatch",1,1.5126055,"adapt"
"pp07","84","i","match",1,1.1486503,"adapt"
"pp07","85","c","mismatch",1,0.865856,"adapt"
"pp07","86","c","match",1,1.1573562,"adapt"
"pp07","87","i","mismatch",1,1.2246543,"adapt"
"pp07","88","filler","mismatch",1,1.4764002,"adapt"
"pp07","89","c","match",0,NA,"adapt"
"pp07","90","c","mismatch",1,1.0690706,"adapt"
"pp07","91","i","match",1,1.2532823,"adapt"
"pp07","92","i","mismatch",1,0.9085295,"adapt"
"pp07","93","c","match",1,1.305947,"adapt"
"pp07","94","c","mismatch",0,NA,"adapt"
"pp07","95","i","match",1,1.9538787,"adapt"
"pp07","96","i","mismatch",0,NA,"adapt"
"pp07","97","c","mismatch",1,0.931341,"adapt"
"pp07","98","c","mismatch",1,0.9482862,"adapt"
"pp07","99","c","mismatch",0,1.140946,"adapt"
"pp07","100","i","mismatch",1,1.2043892,"adapt"
"pp07","101","i","match",1,1.7533034,"adapt"
"pp07","102","c","match",1,0.8484186,"adapt"
"pp07","103","c","mismatch",1,1.1788074,"adapt"
"pp07","104","c","match",1,0.8402321,"adapt"
"pp07","105","i","match",1,0.9013609,"baseline"
"pp07","106","i","match",0,0.5937902,"baseline"
"pp07","107","c","match",1,0.662455,"baseline"
"pp07","108","c","match",1,0.4232147,"baseline"
"pp07","109","i","mismatch",1,0.5270755,"baseline"
"pp07","110","i","match",1,0.5709785,"baseline"
"pp07","111","c","match",1,0.4760508,"baseline"
"pp07","112","filler","mismatch",1,0.6044628,"baseline"
"pp07","113","c","mismatch",1,0.5644494,"baseline"
"pp07","114","c","match",1,0.5112207,"baseline"
"pp07","115","i","match",1,0.4033154,"baseline"
"pp07","116","c","mismatch",1,0.6669025,"baseline"
"pp07","117","i","mismatch",1,0.9262566,"baseline"
"pp07","118","c","match",1,0.5627038,"baseline"
"pp07","119","i","mismatch",1,1.0568124,"baseline"
"pp07","120","c","match",1,0.8320668,"baseline"
"pp07","121","filler","match",1,0.6680842,"baseline"
"pp07","122","i","match",1,0.8107639,"baseline"
"pp07","123","i","match",1,0.4071844,"baseline"
"pp07","124","c","match",1,0.7145192,"baseline"
"pp07","125","filler","match",1,0.6946776,"baseline"
"pp07","126","c","mismatch",1,0.8736198,"baseline"
"pp07","127","c","mismatch",1,0.5580409,"baseline"
"pp07","128","i","match",1,0.7931081,"baseline"
"pp07","129","c","mismatch",1,0.4875758,"baseline"
"pp07","130","i","mismatch",1,1.1282718,"baseline"
"pp07","131","c","mismatch",1,0.7070556,"baseline"
"pp07","132","i","mismatch",1,0.4643474,"baseline"
"pp07","133","i","match",1,1.251412,"baseline"
"pp07","134","c","match",1,0.4623189,"baseline"
"pp07","135","i","match",1,0.4589301,"baseline"
"pp07","136","c","mismatch",1,0.5826819,"baseline"
"pp07","137","i","mismatch",1,0.4700302,"baseline"
"pp07","138","i","mismatch",0,NA,"baseline"
"pp07","139","i","mismatch",1,0.531735,"baseline"
"pp07","140","c","mismatch",1,0.9458888,"baseline"
"pp07","141","i","mismatch",1,1.2337049,"baseline"
"pp07","142","i","mismatch",1,0.7093044,"baseline"
"pp07","143","i","mismatch",1,1.1163498,"baseline"
"pp07","144","c","mismatch",1,0.5664266,"baseline"
"pp07","145","c","match",1,0.5109759,"baseline"
"pp07","146","c","match",1,0.5509027,"baseline"
"pp07","147","i","match",1,0.5244442,"baseline"
"pp07","148","c","mismatch",1,0.7924734,"baseline"
"pp07","149","c","mismatch",1,0.6097488,"baseline"
"pp07","150","i","match",1,0.5631956,"baseline"
"pp07","151","c","match",1,0.4463075,"baseline"
"pp07","152","i","match",0,0.7737932,"baseline"
"pp07","153","c","match",1,0.9481085,"baseline"
"pp07","154","i","mismatch",1,1.4304293,"baseline"
"pp07","155","c","mismatch",1,0.52923,"baseline"
"pp07","156","filler","mismatch",1,0.5794853,"baseline"
"pp07","157","c","match",1,0.5227777,"baseline"
"pp07","158","c","match",1,0.4494222,"baseline"
"pp07","159","i","mismatch",1,0.4432241,"baseline"
"pp07","160","i","mismatch",1,0.9706341,"baseline"
"pp07","161","i","match",1,0.8624396,"baseline"
"pp07","162","c","match",1,0.4476429,"baseline"
"pp07","163","i","match",1,0.4792586,"baseline"
"pp07","164","i","match",0,0.7240115,"baseline"
"pp07","165","filler","mismatch",1,0.4484346,"baseline"
"pp07","166","c","match",1,0.4347147,"baseline"
"pp07","167","i","match",1,0.4754207,"baseline"
"pp07","168","i","mismatch",1,0.6078477,"baseline"
"pp07","169","filler","match",1,0.6368505,"baseline"
"pp07","170","i","match",1,0.5164486,"baseline"
"pp07","171","c","match",1,0.6647933,"baseline"
"pp07","172","c","match",1,0.6246019,"baseline"
"pp07","173","i","match",1,0.5049133,"baseline"
"pp07","174","i","mismatch",1,0.5116228,"baseline"
"pp07","175","c","match",1,0.5714522,"baseline"
"pp07","176","c","mismatch",1,0.7692918,"baseline"
"pp07","177","i","mismatch",1,1.223443,"baseline"
"pp07","178","i","mismatch",1,0.5682294,"baseline"
"pp07","179","i","match",1,0.6265331,"baseline"
"pp07","180","c","mismatch",1,0.5433624,"baseline"
"pp07","181","c","mismatch",1,0.5686359,"baseline"
"pp07","182","filler","match",1,0.5738857,"baseline"
"pp07","183","i","match",1,0.785636,"baseline"
"pp07","184","i","mismatch",1,0.5539583,"baseline"
"pp07","185","i","mismatch",1,0.5207779,"baseline"
"pp07","186","c","mismatch",1,0.5400939,"baseline"
"pp07","187","c","mismatch",1,1.1691891,"baseline"
"pp07","188","i","match",1,0.8057871,"baseline"
"pp07","189","c","mismatch",1,0.7496245,"baseline"
"pp07","190","c","match",1,0.5140152,"baseline"
"pp07","191","i","mismatch",1,1.3743853,"baseline"
"pp07","192","filler","mismatch",1,0.6182153,"baseline"
"pp07","193","c","match",1,0.4792371,"baseline"
"pp07","194","c","mismatch",1,0.606458,"baseline"
"pp07","195","i","match",1,0.5777919,"baseline"
"pp07","196","i","mismatch",1,1.3544474,"baseline"
"pp07","197","c","match",1,0.5649566,"baseline"
"pp07","198","c","mismatch",1,0.5777725,"baseline"
"pp07","199","i","match",1,0.4535071,"baseline"
"pp07","200","i","mismatch",1,0.5855987,"baseline"
"pp07","201","c","mismatch",1,0.7665128,"baseline"
"pp07","202","c","mismatch",1,0.9095006,"baseline"
"pp07","203","c","mismatch",1,0.699847,"baseline"
"pp07","204","i","mismatch",1,0.8686458,"baseline"
"pp07","205","i","match",1,0.5487276,"baseline"
"pp07","206","c","match",1,0.4906704,"baseline"
"pp07","207","c","mismatch",1,0.7146984,"baseline"
"pp07","208","c","match",1,0.5290974,"baseline"
"pp08","1","i","match",1,0.7774715,"adapt"
"pp08","2","i","match",1,0.5372328,"adapt"
"pp08","3","c","match",1,0.7901343,"adapt"
"pp08","4","c","match",1,0.4796138,"adapt"
"pp08","5","i","mismatch",0,0.8624267,"adapt"
"pp08","6","i","match",1,0.5208177,"adapt"
"pp08","7","c","match",1,0.6178651,"adapt"
"pp08","8","filler","mismatch",1,0.7239834,"adapt"
"pp08","9","c","mismatch",1,0.6328102,"adapt"
"pp08","10","c","match",1,0.6410622,"adapt"
"pp08","11","i","match",1,0.6858306,"adapt"
"pp08","12","c","mismatch",1,0.7564221,"adapt"
"pp08","13","i","mismatch",1,0.935506,"adapt"
"pp08","14","c","match",1,0.6976487,"adapt"
"pp08","15","i","mismatch",1,0.7427157,"adapt"
"pp08","16","c","match",1,0.6809608,"adapt"
"pp08","17","filler","match",1,0.9817139,"adapt"
"pp08","18","i","match",1,0.5367666,"adapt"
"pp08","19","i","match",1,0.7773464,"adapt"
"pp08","20","c","match",1,0.7808945,"adapt"
"pp08","21","filler","match",1,0.9057254,"adapt"
"pp08","22","c","mismatch",1,0.8658808,"adapt"
"pp08","23","c","mismatch",1,0.5605726,"adapt"
"pp08","24","i","match",1,0.9581364,"adapt"
"pp08","25","c","mismatch",1,0.7204104,"adapt"
"pp08","26","i","mismatch",1,0.7859065,"adapt"
"pp08","27","c","mismatch",1,0.7859731,"adapt"
"pp08","28","i","mismatch",1,1.1541225,"adapt"
"pp08","29","i","match",1,0.7026951,"adapt"
"pp08","30","c","match",1,0.6180919,"adapt"
"pp08","31","i","match",1,1.0943441,"adapt"
"pp08","32","c","mismatch",1,0.7493123,"adapt"
"pp08","33","i","mismatch",1,0.5396923,"adapt"
"pp08","34","i","mismatch",1,0.6269654,"adapt"
"pp08","35","i","mismatch",1,0.5530364,"adapt"
"pp08","36","c","mismatch",1,0.5560664,"adapt"
"pp08","37","i","mismatch",1,0.7398843,"adapt"
"pp08","38","i","mismatch",1,0.747535,"adapt"
"pp08","39","i","mismatch",1,0.5958188,"adapt"
"pp08","40","c","mismatch",1,0.5912996,"adapt"
"pp08","41","c","match",1,0.9425677,"adapt"
"pp08","42","c","match",1,0.6931045,"adapt"
"pp08","43","i","match",1,0.7894404,"adapt"
"pp08","44","c","mismatch",1,0.4775255,"adapt"
"pp08","45","c","mismatch",1,0.5945171,"adapt"
"pp08","46","i","match",1,0.968491,"adapt"
"pp08","47","c","match",1,0.4446967,"adapt"
"pp08","48","i","match",1,0.8151056,"adapt"
"pp08","49","c","match",1,0.5765593,"adapt"
"pp08","50","i","mismatch",1,0.57695,"adapt"
"pp08","51","c","mismatch",1,0.7213024,"adapt"
"pp08","52","filler","mismatch",1,0.960389,"adapt"
"pp08","53","c","match",1,0.568258,"adapt"
"pp08","54","c","match",1,0.3978249,"adapt"
"pp08","55","i","mismatch",1,0.7375383,"adapt"
"pp08","56","i","mismatch",1,0.6687978,"adapt"
"pp08","57","i","match",1,0.6352518,"adapt"
"pp08","58","c","match",1,0.8138372,"adapt"
"pp08","59","i","match",1,0.7733911,"adapt"
"pp08","60","i","match",1,0.6436316,"adapt"
"pp08","61","filler","mismatch",1,0.7351932,"adapt"
"pp08","62","c","match",1,1.7853181,"adapt"
"pp08","63","i","match",0,0.5797545,"adapt"
"pp08","64","i","mismatch",0,0.8604164,"adapt"
"pp08","65","filler","match",1,0.7539778,"adapt"
"pp08","66","i","match",1,0.5071283,"adapt"
"pp08","67","c","match",1,0.7941431,"adapt"
"pp08","68","c","match",1,0.5978474,"adapt"
"pp08","69","i","match",1,0.5201537,"adapt"
"pp08","70","i","mismatch",0,NA,"adapt"
"pp08","71","c","match",1,0.9308957,"adapt"
"pp08","72","c","mismatch",1,0.5065533,"adapt"
"pp08","73","i","mismatch",1,0.5901066,"adapt"
"pp08","74","i","mismatch",0,0.9277287,"adapt"
"pp08","75","i","match",1,0.5261363,"adapt"
"pp08","76","c","mismatch",1,0.6100147,"adapt"
"pp08","77","c","mismatch",1,0.6995339,"adapt"
"pp08","78","filler","match",1,0.4650705,"adapt"
"pp08","79","i","match",1,0.9386324,"adapt"
"pp08","80","i","mismatch",1,0.5482355,"adapt"
"pp08","81","i","mismatch",1,0.6899909,"adapt"
"pp08","82","c","mismatch",1,0.6235568,"adapt"
"pp08","83","c","mismatch",1,0.6725954,"adapt"
"pp08","84","i","match",1,0.5670436,"adapt"
"pp08","85","c","mismatch",1,0.6540018,"adapt"
"pp08","86","c","match",1,0.4760288,"adapt"
"pp08","87","i","mismatch",1,1.0421239,"adapt"
"pp08","88","filler","mismatch",1,0.6170075,"adapt"
"pp08","89","c","match",1,1.5159205,"adapt"
"pp08","90","c","mismatch",1,0.644432,"adapt"
"pp08","91","i","match",1,0.5367858,"adapt"
"pp08","92","i","mismatch",1,0.6582542,"adapt"
"pp08","93","c","match",0,NA,"adapt"
"pp08","94","c","mismatch",1,0.7111441,"adapt"
"pp08","95","i","match",1,0.6769632,"adapt"
"pp08","96","i","mismatch",1,0.6719827,"adapt"
"pp08","97","c","mismatch",1,0.6916291,"adapt"
"pp08","98","c","mismatch",0,NA,"adapt"
"pp08","99","c","mismatch",1,0.5734188,"adapt"
"pp08","100","i","mismatch",1,0.6108275,"adapt"
"pp08","101","i","match",1,0.6353329,"adapt"
"pp08","102","c","match",0,NA,"adapt"
"pp08","103","c","mismatch",1,0.4632732,"adapt"
"pp08","104","c","match",0,NA,"adapt"
"pp08","105","i","match",1,0.4972351,"baseline"
"pp08","106","i","match",1,0.7781721,"baseline"
"pp08","107","c","match",1,0.8916592,"baseline"
"pp08","108","c","match",1,0.5250009,"baseline"
"pp08","109","i","mismatch",1,0.4732828,"baseline"
"pp08","110","i","match",1,0.5586325,"baseline"
"pp08","111","c","match",1,0.4538057,"baseline"
"pp08","112","filler","mismatch",1,0.644528,"baseline"
"pp08","113","c","mismatch",1,0.5321909,"baseline"
"pp08","114","c","match",1,0.4581359,"baseline"
"pp08","115","i","match",1,0.4439911,"baseline"
"pp08","116","c","mismatch",1,0.5177998,"baseline"
"pp08","117","i","mismatch",1,0.5606874,"baseline"
"pp08","118","c","match",1,0.5100017,"baseline"
"pp08","119","i","mismatch",1,0.4477268,"baseline"
"pp08","120","c","match",1,0.6497722,"baseline"
"pp08","121","filler","match",1,0.6899949,"baseline"
"pp08","122","i","match",1,0.6122729,"baseline"
"pp08","123","i","match",1,0.436849,"baseline"
"pp08","124","c","match",1,0.4232973,"baseline"
"pp08","125","filler","match",1,0.937653,"baseline"
"pp08","126","c","mismatch",1,0.5066509,"baseline"
"pp08","127","c","mismatch",1,0.4493012,"baseline"
"pp08","128","i","match",1,1.4926577,"baseline"
"pp08","129","c","mismatch",1,0.5630147,"baseline"
"pp08","130","i","mismatch",1,0.5987778,"baseline"
"pp08","131","c","mismatch",1,0.5310457,"baseline"
"pp08","132","i","mismatch",1,1.0933855,"baseline"
"pp08","133","i","match",1,0.8259072,"baseline"
"pp08","134","c","match",1,0.5775143,"baseline"
"pp08","135","i","match",1,0.4358487,"baseline"
"pp08","136","c","mismatch",1,0.5930531,"baseline"
"pp08","137","i","mismatch",1,0.466514,"baseline"
"pp08","138","i","mismatch",0,0.5399553,"baseline"
"pp08","139","i","mismatch",1,0.5067483,"baseline"
"pp08","140","c","mismatch",1,0.6084942,"baseline"
"pp08","141","i","mismatch",1,0.4584081,"baseline"
"pp08","142","i","mismatch",1,0.5233647,"baseline"
"pp08","143","i","mismatch",1,0.6988021,"baseline"
"pp08","144","c","mismatch",1,0.7290887,"baseline"
"pp08","145","c","match",1,0.5857933,"baseline"
"pp08","146","c","match",1,0.6681242,"baseline"
"pp08","147","i","match",1,0.4282475,"baseline"
"pp08","148","c","mismatch",1,0.6753775,"baseline"
"pp08","149","c","mismatch",1,0.5912368,"baseline"
"pp08","150","i","match",1,0.5959186,"baseline"
"pp08","151","c","match",1,0.5462975,"baseline"
"pp08","152","i","match",1,0.5541522,"baseline"
"pp08","153","c","match",1,0.422919,"baseline"
"pp08","154","i","mismatch",1,0.5323289,"baseline"
"pp08","155","c","mismatch",1,0.6106349,"baseline"
"pp08","156","filler","mismatch",1,0.5707195,"baseline"
"pp08","157","c","match",1,0.5154403,"baseline"
"pp08","158","c","match",1,0.393077,"baseline"
"pp08","159","i","mismatch",1,0.4916135,"baseline"
"pp08","160","i","mismatch",1,0.5038401,"baseline"
"pp08","161","i","match",1,0.4665669,"baseline"
"pp08","162","c","match",1,0.5962843,"baseline"
"pp08","163","i","match",1,0.5771083,"baseline"
"pp08","164","i","match",1,0.5364622,"baseline"
"pp08","165","filler","mismatch",1,1.4563216,"baseline"
"pp08","166","c","match",1,0.4723518,"baseline"
"pp08","167","i","match",1,0.5221717,"baseline"
"pp08","168","i","mismatch",1,0.6379461,"baseline"
"pp08","169","filler","match",0,1.1468486,"baseline"
"pp08","170","i","match",1,0.4315761,"baseline"
"pp08","171","c","match",1,0.514257,"baseline"
"pp08","172","c","match",1,0.4980282,"baseline"
"pp08","173","i","match",1,0.7064135,"baseline"
"pp08","174","i","mismatch",1,0.5120201,"baseline"
"pp08","175","c","match",1,0.6858788,"baseline"
"pp08","176","c","mismatch",1,0.6660894,"baseline"
"pp08","177","i","mismatch",1,0.5456043,"baseline"
"pp08","178","i","mismatch",1,0.5637172,"baseline"
"pp08","179","i","match",1,0.5488718,"baseline"
"pp08","180","c","mismatch",1,0.4936973,"baseline"
"pp08","181","c","mismatch",1,0.4835076,"baseline"
"pp08","182","filler","match",0,0.6189568,"baseline"
"pp08","183","i","match",1,0.5622067,"baseline"
"pp08","184","i","mismatch",1,0.6159885,"baseline"
"pp08","185","i","mismatch",1,0.6841517,"baseline"
"pp08","186","c","mismatch",1,0.4270866,"baseline"
"pp08","187","c","mismatch",1,0.5579714,"baseline"
"pp08","188","i","match",1,0.4766273,"baseline"
"pp08","189","c","mismatch",1,0.5132855,"baseline"
"pp08","190","c","match",1,0.5252202,"baseline"
"pp08","191","i","mismatch",1,1.0235133,"baseline"
"pp08","192","filler","mismatch",1,0.4442019,"baseline"
"pp08","193","c","match",1,0.4964429,"baseline"
"pp08","194","c","mismatch",1,0.5450078,"baseline"
"pp08","195","i","match",1,0.593071,"baseline"
"pp08","196","i","mismatch",1,0.5466378,"baseline"
"pp08","197","c","match",1,0.4622921,"baseline"
"pp08","198","c","mismatch",1,0.5969202,"baseline"
"pp08","199","i","match",1,0.5565379,"baseline"
"pp08","200","i","mismatch",1,0.7511992,"baseline"
"pp08","201","c","mismatch",1,0.5783129,"baseline"
"pp08","202","c","mismatch",1,0.6561209,"baseline"
"pp08","203","c","mismatch",1,0.705262,"baseline"
"pp08","204","i","mismatch",1,0.6650757,"baseline"
"pp08","205","i","match",1,0.3800488,"baseline"
"pp08","206","c","match",1,0.5982798,"baseline"
"pp08","207","c","mismatch",1,0.6671631,"baseline"
"pp08","208","c","match",1,0.8599397,"baseline"
"pp09","1","i","match",1,0.5910776,"adapt"
"pp09","2","i","match",1,0.8216968,"adapt"
"pp09","3","c","match",1,0.8852779,"adapt"
"pp09","4","c","match",1,0.6372354,"adapt"
"pp09","5","i","mismatch",1,0.7776328,"adapt"
"pp09","6","i","match",1,0.6596571,"adapt"
"pp09","7","c","match",1,0.8141735,"adapt"
"pp09","8","filler","mismatch",1,1.1519405,"adapt"
"pp09","9","c","mismatch",1,0.6295511,"adapt"
"pp09","10","c","match",1,0.4683635,"adapt"
"pp09","11","i","match",1,0.7374119,"adapt"
"pp09","12","c","mismatch",1,0.7460884,"adapt"
"pp09","13","i","mismatch",1,0.5123051,"adapt"
"pp09","14","c","match",1,0.5927,"adapt"
"pp09","15","i","mismatch",1,0.7560451,"adapt"
"pp09","16","c","match",1,0.6189806,"adapt"
"pp09","17","filler","match",0,1.2092922,"adapt"
"pp09","18","i","match",1,0.6748129,"adapt"
"pp09","19","i","match",1,1.2663292,"adapt"
"pp09","20","c","match",1,0.9887926,"adapt"
"pp09","21","filler","match",0,0.7845939,"adapt"
"pp09","22","c","mismatch",0,0.6311539,"adapt"
"pp09","23","c","mismatch",1,0.7196968,"adapt"
"pp09","24","i","match",1,0.7542318,"adapt"
"pp09","25","c","mismatch",0,0.6269689,"adapt"
"pp09","26","i","mismatch",1,0.6708476,"adapt"
"pp09","27","c","mismatch",0,0.6975664,"adapt"
"pp09","28","i","mismatch",1,1.1001225,"adapt"
"pp09","29","i","match",1,0.7666668,"adapt"
"pp09","30","c","match",1,0.4572571,"adapt"
"pp09","31","i","match",1,0.8115974,"adapt"
"pp09","32","c","mismatch",1,1.1170742,"adapt"
"pp09","33","i","mismatch",1,0.4839303,"adapt"
"pp09","34","i","mismatch",1,1.8595639,"adapt"
"pp09","35","i","mismatch",1,0.8428399,"adapt"
"pp09","36","c","mismatch",1,0.884844,"adapt"
"pp09","37","i","mismatch",1,0.7490445,"adapt"
"pp09","38","i","mismatch",1,0.8550607,"adapt"
"pp09","39","i","mismatch",1,0.9025087,"adapt"
"pp09","40","c","mismatch",1,0.8739373,"adapt"
"pp09","41","c","match",1,0.6529736,"adapt"
"pp09","42","c","match",1,0.909601,"adapt"
"pp09","43","i","match",1,0.7856661,"adapt"
"pp09","44","c","mismatch",1,0.9471083,"adapt"
"pp09","45","c","mismatch",1,0.7336674,"adapt"
"pp09","46","i","match",1,0.7207937,"adapt"
"pp09","47","c","match",1,0.6695299,"adapt"
"pp09","48","i","match",1,1.1254904,"adapt"
"pp09","49","c","match",1,1.101428,"adapt"
"pp09","50","i","mismatch",1,0.8070297,"adapt"
"pp09","51","c","mismatch",1,0.7468071,"adapt"
"pp09","52","filler","mismatch",1,0.9742556,"adapt"
"pp09","53","c","match",1,1.1722439,"adapt"
"pp09","54","c","match",1,0.6125519,"adapt"
"pp09","55","i","mismatch",1,1.3196786,"adapt"
"pp09","56","i","mismatch",1,0.6488426,"adapt"
"pp09","57","i","match",1,0.7823697,"adapt"
"pp09","58","c","match",1,1.1191107,"adapt"
"pp09","59","i","match",1,0.6747683,"adapt"
"pp09","60","i","match",0,0.8321887,"adapt"
"pp09","61","filler","mismatch",1,0.942564,"adapt"
"pp09","62","c","match",1,0.6365639,"adapt"
"pp09","63","i","match",1,0.7017927,"adapt"
"pp09","64","i","mismatch",1,0.4873228,"adapt"
"pp09","65","filler","match",1,0.9013382,"adapt"
"pp09","66","i","match",1,0.8109765,"adapt"
"pp09","67","c","match",1,0.6916667,"adapt"
"pp09","68","c","match",1,1.2716366,"adapt"
"pp09","69","i","match",1,1.2370476,"adapt"
"pp09","70","i","mismatch",1,0.8154345,"adapt"
"pp09","71","c","match",1,0.7613695,"adapt"
"pp09","72","c","mismatch",1,0.714466,"adapt"
"pp09","73","i","mismatch",1,0.811424,"adapt"
"pp09","74","i","mismatch",1,0.9591045,"adapt"
"pp09","75","i","match",1,1.5006386,"adapt"
"pp09","76","c","mismatch",1,0.726217,"adapt"
"pp09","77","c","mismatch",1,0.7691023,"adapt"
"pp09","78","filler","match",1,1.0183396,"adapt"
"pp09","79","i","match",1,0.6796553,"adapt"
"pp09","80","i","mismatch",1,0.9062981,"adapt"
"pp09","81","i","mismatch",1,0.4448154,"adapt"
"pp09","82","c","mismatch",1,0.8488122,"adapt"
"pp09","83","c","mismatch",1,0.8239857,"adapt"
"pp09","84","i","match",1,0.8460707,"adapt"
"pp09","85","c","mismatch",1,0.9141696,"adapt"
"pp09","86","c","match",1,1.2824527,"adapt"
"pp09","87","i","mismatch",1,0.6995384,"adapt"
"pp09","88","filler","mismatch",1,0.7549034,"adapt"
"pp09","89","c","match",1,0.8814988,"adapt"
"pp09","90","c","mismatch",1,0.7534077,"adapt"
"pp09","91","i","match",1,0.8849694,"adapt"
"pp09","92","i","mismatch",1,0.8275733,"adapt"
"pp09","93","c","match",1,0.6066143,"adapt"
"pp09","94","c","mismatch",1,0.7479549,"adapt"
"pp09","95","i","match",1,0.8660764,"adapt"
"pp09","96","i","mismatch",1,0.7681021,"adapt"
"pp09","97","c","mismatch",1,0.8143117,"adapt"
"pp09","98","c","mismatch",1,0.791534,"adapt"
"pp09","99","c","mismatch",1,0.9235059,"adapt"
"pp09","100","i","mismatch",1,0.8542113,"adapt"
"pp09","101","i","match",1,0.620143,"adapt"
"pp09","102","c","match",1,0.6545202,"adapt"
"pp09","103","c","mismatch",1,0.7616079,"adapt"
"pp09","104","c","match",0,NA,"adapt"
"pp09","105","i","match",1,0.574866,"baseline"
"pp09","106","i","match",1,0.6596515,"baseline"
"pp09","107","c","match",1,0.5415847,"baseline"
"pp09","108","c","match",1,0.6128061,"baseline"
"pp09","109","i","mismatch",0,0.5738872,"baseline"
"pp09","110","i","match",1,0.5574063,"baseline"
"pp09","111","c","match",1,0.4311395,"baseline"
"pp09","112","filler","mismatch",1,0.5668426,"baseline"
"pp09","113","c","mismatch",1,0.5467454,"baseline"
"pp09","114","c","match",1,0.5138556,"baseline"
"pp09","115","i","match",1,0.4988248,"baseline"
"pp09","116","c","mismatch",1,0.4798293,"baseline"
"pp09","117","i","mismatch",1,0.4862578,"baseline"
"pp09","118","c","match",1,0.6963358,"baseline"
"pp09","119","i","mismatch",1,0.4221589,"baseline"
"pp09","120","c","match",1,0.717569,"baseline"
"pp09","121","filler","match",1,0.6225002,"baseline"
"pp09","122","i","match",1,1.0613769,"baseline"
"pp09","123","i","match",1,0.4920345,"baseline"
"pp09","124","c","match",1,0.7581233,"baseline"
"pp09","125","filler","match",0,0.9115965,"baseline"
"pp09","126","c","mismatch",0,0.6139037,"baseline"
"pp09","127","c","mismatch",1,0.746529,"baseline"
"pp09","128","i","match",1,0.5800393,"baseline"
"pp09","129","c","mismatch",1,0.5791932,"baseline"
"pp09","130","i","mismatch",1,0.5970789,"baseline"
"pp09","131","c","mismatch",1,0.7511289,"baseline"
"pp09","132","i","mismatch",1,0.5886608,"baseline"
"pp09","133","i","match",1,0.8314251,"baseline"
"pp09","134","c","match",1,0.4284852,"baseline"
"pp09","135","i","match",1,0.5574695,"baseline"
"pp09","136","c","mismatch",1,0.885514,"baseline"
"pp09","137","i","mismatch",1,0.7812465,"baseline"
"pp09","138","i","mismatch",1,0.662457,"baseline"
"pp09","139","i","mismatch",1,0.5818205,"baseline"
"pp09","140","c","mismatch",1,0.7754642,"baseline"
"pp09","141","i","mismatch",1,0.8225087,"baseline"
"pp09","142","i","mismatch",1,0.5535468,"baseline"
"pp09","143","i","mismatch",1,0.6495014,"baseline"
"pp09","144","c","mismatch",1,0.8178792,"baseline"
"pp09","145","c","match",1,0.9125385,"baseline"
"pp09","146","c","match",1,0.5524505,"baseline"
"pp09","147","i","match",1,0.4955182,"baseline"
"pp09","148","c","mismatch",1,0.6121164,"baseline"
"pp09","149","c","mismatch",1,0.6251386,"baseline"
"pp09","150","i","match",1,0.6014946,"baseline"
"pp09","151","c","match",1,0.6837381,"baseline"
"pp09","152","i","match",1,0.6766307,"baseline"
"pp09","153","c","match",1,0.582572,"baseline"
"pp09","154","i","mismatch",1,0.642991,"baseline"
"pp09","155","c","mismatch",1,0.6036874,"baseline"
"pp09","156","filler","mismatch",1,0.4660541,"baseline"
"pp09","157","c","match",1,0.4997543,"baseline"
"pp09","158","c","match",1,0.5375374,"baseline"
"pp09","159","i","mismatch",1,0.7860155,"baseline"
"pp09","160","i","mismatch",1,0.7182326,"baseline"
"pp09","161","i","match",1,0.5428349,"baseline"
"pp09","162","c","match",1,0.8338952,"baseline"
"pp09","163","i","match",1,0.653093,"baseline"
"pp09","164","i","match",1,0.6660559,"baseline"
"pp09","165","filler","mismatch",1,0.6646961,"baseline"
"pp09","166","c","match",1,0.6296172,"baseline"
"pp09","167","i","match",1,0.689661,"baseline"
"pp09","168","i","mismatch",1,0.7686927,"baseline"
"pp09","169","filler","match",0,0.5915595,"baseline"
"pp09","170","i","match",1,0.7554364,"baseline"
"pp09","171","c","match",1,0.513067,"baseline"
"pp09","172","c","match",1,0.8945196,"baseline"
"pp09","173","i","match",1,0.4819415,"baseline"
"pp09","174","i","mismatch",1,0.7086266,"baseline"
"pp09","175","c","match",1,0.6500308,"baseline"
"pp09","176","c","mismatch",1,0.8103075,"baseline"
"pp09","177","i","mismatch",1,0.5635899,"baseline"
"pp09","178","i","mismatch",1,0.4464215,"baseline"
"pp09","179","i","match",1,0.7126653,"baseline"
"pp09","180","c","mismatch",1,0.6748377,"baseline"
"pp09","181","c","mismatch",1,1.2305486,"baseline"
"pp09","182","filler","match",1,0.7515005,"baseline"
"pp09","183","i","match",1,0.4967165,"baseline"
"pp09","184","i","mismatch",1,0.6382737,"baseline"
"pp09","185","i","mismatch",1,0.7626775,"baseline"
"pp09","186","c","mismatch",1,0.546814,"baseline"
"pp09","187","c","mismatch",1,0.6205701,"baseline"
"pp09","188","i","match",1,0.5469418,"baseline"
"pp09","189","c","mismatch",1,0.8130929,"baseline"
"pp09","190","c","match",1,0.5255985,"baseline"
"pp09","191","i","mismatch",1,0.866967,"baseline"
"pp09","192","filler","mismatch",1,0.4991137,"baseline"
"pp09","193","c","match",1,0.432505,"baseline"
"pp09","194","c","mismatch",1,0.5604663,"baseline"
"pp09","195","i","match",1,0.5342243,"baseline"
"pp09","196","i","mismatch",1,0.5720957,"baseline"
"pp09","197","c","match",1,0.4382784,"baseline"
"pp09","198","c","mismatch",1,0.6638581,"baseline"
"pp09","199","i","match",1,0.4519066,"baseline"
"pp09","200","i","mismatch",1,0.8541077,"baseline"
"pp09","201","c","mismatch",1,0.577485,"baseline"
"pp09","202","c","mismatch",1,0.5889686,"baseline"
"pp09","203","c","mismatch",0,0.5968815,"baseline"
"pp09","204","i","mismatch",1,0.5174571,"baseline"
"pp09","205","i","match",1,0.4450601,"baseline"
"pp09","206","c","match",1,0.5282223,"baseline"
"pp09","207","c","mismatch",1,0.564114,"baseline"
"pp09","208","c","match",1,0.8564704,"baseline"
"pp10","1","i","match",0,0.5720858,"adapt"
"pp10","2","i","match",0,1.5527705,"adapt"
"pp10","3","c","match",1,1.0516228,"adapt"
"pp10","4","c","match",1,0.7063614,"adapt"
"pp10","5","i","mismatch",1,0.6864553,"adapt"
"pp10","6","i","match",1,0.8241792,"adapt"
"pp10","7","c","match",1,0.6440705,"adapt"
"pp10","8","filler","mismatch",0,NA,"adapt"
"pp10","9","c","mismatch",1,0.6062233,"adapt"
"pp10","10","c","match",1,0.6630674,"adapt"
"pp10","11","i","match",1,0.8552021,"adapt"
"pp10","12","c","mismatch",1,1.0066878,"adapt"
"pp10","13","i","mismatch",1,0.4672692,"adapt"
"pp10","14","c","match",1,0.8121388,"adapt"
"pp10","15","i","mismatch",1,1.4085207,"adapt"
"pp10","16","c","match",1,0.7292274,"adapt"
"pp10","17","filler","match",1,0.7643903,"adapt"
"pp10","18","i","match",1,0.9699968,"adapt"
"pp10","19","i","match",1,0.7577325,"adapt"
"pp10","20","c","match",1,0.9004225,"adapt"
"pp10","21","filler","match",0,0.4739933,"adapt"
"pp10","22","c","mismatch",1,0.7990096,"adapt"
"pp10","23","c","mismatch",1,0.5765504,"adapt"
"pp10","24","i","match",1,1.2210164,"adapt"
"pp10","25","c","mismatch",1,0.906078,"adapt"
"pp10","26","i","mismatch",1,0.7616714,"adapt"
"pp10","27","c","mismatch",1,1.7949053,"adapt"
"pp10","28","i","mismatch",1,0.5707442,"adapt"
"pp10","29","i","match",1,0.7522358,"adapt"
"pp10","30","c","match",1,1.1649995,"adapt"
"pp10","31","i","match",1,0.6818433,"adapt"
"pp10","32","c","mismatch",1,0.6057579,"adapt"
"pp10","33","i","mismatch",1,0.6314321,"adapt"
"pp10","34","i","mismatch",1,0.6624557,"adapt"
"pp10","35","i","mismatch",1,0.7374613,"adapt"
"pp10","36","c","mismatch",1,0.5902073,"adapt"
"pp10","37","i","mismatch",1,0.6210966,"adapt"
"pp10","38","i","mismatch",1,0.9186332,"adapt"
"pp10","39","i","mismatch",1,1.380935,"adapt"
"pp10","40","c","mismatch",1,0.6031535,"adapt"
"pp10","41","c","match",1,0.7399193,"adapt"
"pp10","42","c","match",1,0.690401,"adapt"
"pp10","43","i","match",1,0.5004017,"adapt"
"pp10","44","c","mismatch",1,0.9825928,"adapt"
"pp10","45","c","mismatch",1,0.6876663,"adapt"
"pp10","46","i","match",1,1.3054189,"adapt"
"pp10","47","c","match",1,0.7344128,"adapt"
"pp10","48","i","match",1,0.7342185,"adapt"
"pp10","49","c","match",1,0.6811577,"adapt"
"pp10","50","i","mismatch",1,0.7132694,"adapt"
"pp10","51","c","mismatch",1,0.6019857,"adapt"
"pp10","52","filler","mismatch",1,0.7059913,"adapt"
"pp10","53","c","match",1,0.9373964,"adapt"
"pp10","54","c","match",1,0.706778,"adapt"
"pp10","55","i","mismatch",1,0.7716981,"adapt"
"pp10","56","i","mismatch",1,0.4862894,"adapt"
"pp10","57","i","match",1,1.0312791,"adapt"
"pp10","58","c","match",1,0.7128061,"adapt"
"pp10","59","i","match",1,0.7981986,"adapt"
"pp10","60","i","match",1,0.5871457,"adapt"
"pp10","61","filler","mismatch",1,0.6938976,"adapt"
"pp10","62","c","match",1,0.7602081,"adapt"
"pp10","63","i","match",1,0.9264987,"adapt"
"pp10","64","i","mismatch",1,0.4997741,"adapt"
"pp10","65","filler","match",0,0.4570222,"adapt"
"pp10","66","i","match",1,0.8325094,"adapt"
"pp10","67","c","match",1,0.6699902,"adapt"
"pp10","68","c","match",0,1.2347823,"adapt"
"pp10","69","i","match",1,0.8341903,"adapt"
"pp10","70","i","mismatch",0,0.9407637,"adapt"
"pp10","71","c","match",1,0.6068722,"adapt"
"pp10","72","c","mismatch",1,0.4940502,"adapt"
"pp10","73","i","mismatch",1,0.905107,"adapt"
"pp10","74","i","mismatch",1,0.5354335,"adapt"
"pp10","75","i","match",1,1.2297386,"adapt"
"pp10","76","c","mismatch",1,0.584493,"adapt"
"pp10","77","c","mismatch",1,0.6070718,"adapt"
"pp10","78","filler","match",0,0.7278197,"adapt"
"pp10","79","i","match",1,0.8459435,"adapt"
"pp10","80","i","mismatch",1,0.4308652,"adapt"
"pp10","81","i","mismatch",1,1.1039624,"adapt"
"pp10","82","c","mismatch",1,1.0622355,"adapt"
"pp10","83","c","mismatch",1,0.6838986,"adapt"
"pp10","84","i","match",1,1.0975573,"adapt"
"pp10","85","c","mismatch",1,0.5617892,"adapt"
"pp10","86","c","match",1,0.9493976,"adapt"
"pp10","87","i","mismatch",1,0.5361246,"adapt"
"pp10","88","filler","mismatch",0,NA,"adapt"
"pp10","89","c","match",1,0.7628991,"adapt"
"pp10","90","c","mismatch",1,0.6331352,"adapt"
"pp10","91","i","match",1,0.6850367,"adapt"
"pp10","92","i","mismatch",1,0.5400711,"adapt"
"pp10","93","c","match",1,0.6789299,"adapt"
"pp10","94","c","mismatch",1,0.6055068,"adapt"
"pp10","95","i","match",1,0.6273274,"adapt"
"pp10","96","i","mismatch",1,0.594715,"adapt"
"pp10","97","c","mismatch",1,0.5307176,"adapt"
"pp10","98","c","mismatch",1,0.742512,"adapt"
"pp10","99","c","mismatch",1,0.7809615,"adapt"
"pp10","100","i","mismatch",1,0.5414465,"adapt"
"pp10","101","i","match",1,0.787255,"adapt"
"pp10","102","c","match",1,0.6072918,"adapt"
"pp10","103","c","mismatch",1,0.5507421,"adapt"
"pp10","104","c","match",1,0.5070071,"adapt"
"pp10","105","i","match",1,1.7486441,"baseline"
"pp10","106","i","match",1,1.7161199,"baseline"
"pp10","107","c","match",1,0.9929312,"baseline"
"pp10","108","c","match",1,0.6019661,"baseline"
"pp10","109","i","mismatch",1,0.7310186,"baseline"
"pp10","110","i","match",1,1.6423575,"baseline"
"pp10","111","c","match",1,0.647436,"baseline"
"pp10","112","filler","mismatch",1,0.9020131,"baseline"
"pp10","113","c","mismatch",1,0.7404449,"baseline"
"pp10","114","c","match",1,0.6490183,"baseline"
"pp10","115","i","match",1,1.2208279,"baseline"
"pp10","116","c","mismatch",1,0.6787595,"baseline"
"pp10","117","i","mismatch",1,0.8296839,"baseline"
"pp10","118","c","match",0,0.5194119,"baseline"
"pp10","119","i","mismatch",1,1.945733,"baseline"
"pp10","120","c","match",1,0.6582184,"baseline"
"pp10","121","filler","match",1,0.7819009,"baseline"
"pp10","122","i","match",1,0.6665529,"baseline"
"pp10","123","i","match",0,NA,"baseline"
"pp10","124","c","match",1,1.5439561,"baseline"
"pp10","125","filler","match",1,1.0218644,"baseline"
"pp10","126","c","mismatch",0,1.3780714,"baseline"
"pp10","127","c","mismatch",1,1.1023073,"baseline"
"pp10","128","i","match",1,1.0909328,"baseline"
"pp10","129","c","mismatch",1,1.2948176,"baseline"
"pp10","130","i","mismatch",1,1.0028682,"baseline"
"pp10","131","c","mismatch",1,0.8138182,"baseline"
"pp10","132","i","mismatch",1,1.0614927,"baseline"
"pp10","133","i","match",1,1.5278039,"baseline"
"pp10","134","c","match",1,0.6357311,"baseline"
"pp10","135","i","match",1,0.9548474,"baseline"
"pp10","136","c","mismatch",1,0.8708664,"baseline"
"pp10","137","i","mismatch",1,1.1384018,"baseline"
"pp10","138","i","mismatch",1,0.8452264,"baseline"
"pp10","139","i","mismatch",1,0.9434009,"baseline"
"pp10","140","c","mismatch",1,0.6662762,"baseline"
"pp10","141","i","mismatch",1,0.9631985,"baseline"
"pp10","142","i","mismatch",1,1.3117684,"baseline"
"pp10","143","i","mismatch",1,0.685519,"baseline"
"pp10","144","c","mismatch",1,0.6699396,"baseline"
"pp10","145","c","match",1,0.6495126,"baseline"
"pp10","146","c","match",1,0.8514754,"baseline"
"pp10","147","i","match",1,1.0302911,"baseline"
"pp10","148","c","mismatch",1,0.9835949,"baseline"
"pp10","149","c","mismatch",1,1.6448272,"baseline"
"pp10","150","i","match",0,1.0769887,"baseline"
"pp10","151","c","match",1,0.9942594,"baseline"
"pp10","152","i","match",1,0.7940585,"baseline"
"pp10","153","c","match",1,0.8462251,"baseline"
"pp10","154","i","mismatch",1,0.7704603,"baseline"
"pp10","155","c","mismatch",1,1.2066052,"baseline"
"pp10","156","filler","mismatch",1,1.0608259,"baseline"
"pp10","157","c","match",1,0.782912,"baseline"
"pp10","158","c","match",1,0.9469797,"baseline"
"pp10","159","i","mismatch",1,1.0810692,"baseline"
"pp10","160","i","mismatch",1,1.1192867,"baseline"
"pp10","161","i","match",1,0.9361512,"baseline"
"pp10","162","c","match",1,1.0890594,"baseline"
"pp10","163","i","match",1,0.8872551,"baseline"
"pp10","164","i","match",1,0.751748,"baseline"
"pp10","165","filler","mismatch",1,0.862952,"baseline"
"pp10","166","c","match",1,0.7112865,"baseline"
"pp10","167","i","match",1,0.6193398,"baseline"
"pp10","168","i","mismatch",1,0.9279679,"baseline"
"pp10","169","filler","match",1,0.7637027,"baseline"
"pp10","170","i","match",1,0.8000217,"baseline"
"pp10","171","c","match",1,0.4844423,"baseline"
"pp10","172","c","match",1,0.5969693,"baseline"
"pp10","173","i","match",1,0.8463867,"baseline"
"pp10","174","i","mismatch",1,0.7879289,"baseline"
"pp10","175","c","match",1,1.0851199,"baseline"
"pp10","176","c","mismatch",1,0.9897519,"baseline"
"pp10","177","i","mismatch",1,0.9952583,"baseline"
"pp10","178","i","mismatch",1,0.7752728,"baseline"
"pp10","179","i","match",1,0.5659141,"baseline"
"pp10","180","c","mismatch",1,1.9193063,"baseline"
"pp10","181","c","mismatch",1,0.7871183,"baseline"
"pp10","182","filler","match",0,0.665138,"baseline"
"pp10","183","i","match",1,0.5849185,"baseline"
"pp10","184","i","mismatch",1,0.7430881,"baseline"
"pp10","185","i","mismatch",1,1.0102895,"baseline"
"pp10","186","c","mismatch",1,0.9359816,"baseline"
"pp10","187","c","mismatch",1,0.7537805,"baseline"
"pp10","188","i","match",1,1.0079359,"baseline"
"pp10","189","c","mismatch",1,1.1748076,"baseline"
"pp10","190","c","match",1,0.6408669,"baseline"
"pp10","191","i","mismatch",1,1.3277978,"baseline"
"pp10","192","filler","mismatch",1,0.9570632,"baseline"
"pp10","193","c","match",1,0.6973871,"baseline"
"pp10","194","c","mismatch",1,0.7342556,"baseline"
"pp10","195","i","match",1,0.831656,"baseline"
"pp10","196","i","mismatch",1,1.462287,"baseline"
"pp10","197","c","match",1,0.760325,"baseline"
"pp10","198","c","mismatch",1,1.1456497,"baseline"
"pp10","199","i","match",1,0.9368597,"baseline"
"pp10","200","i","mismatch",1,0.9928785,"baseline"
"pp10","201","c","mismatch",0,0.6428558,"baseline"
"pp10","202","c","mismatch",1,0.6893237,"baseline"
"pp10","203","c","mismatch",1,0.6869729,"baseline"
"pp10","204","i","mismatch",1,0.9825567,"baseline"
"pp10","205","i","match",1,1.3258812,"baseline"
"pp10","206","c","match",1,1.0443153,"baseline"
"pp10","207","c","mismatch",1,0.7180903,"baseline"
"pp10","208","c","match",1,0.6290882,"baseline"
"pp11","1","i","match",1,0.5257918,"adapt"
"pp11","2","i","match",1,0.5361686,"adapt"
"pp11","3","c","match",1,0.5195939,"adapt"
"pp11","4","c","match",1,0.4861565,"adapt"
"pp11","5","i","mismatch",1,1.0305609,"adapt"
"pp11","6","i","match",1,0.9009556,"adapt"
"pp11","7","c","match",1,0.6423374,"adapt"
"pp11","8","filler","mismatch",1,0.8505809,"adapt"
"pp11","9","c","mismatch",1,0.6923962,"adapt"
"pp11","10","c","match",1,0.7083292,"adapt"
"pp11","11","i","match",1,0.5158677,"adapt"
"pp11","12","c","mismatch",1,0.507723,"adapt"
"pp11","13","i","mismatch",1,0.7353386,"adapt"
"pp11","14","c","match",1,0.8320266,"adapt"
"pp11","15","i","mismatch",1,0.6824034,"adapt"
"pp11","16","c","match",1,0.5243843,"adapt"
"pp11","17","filler","match",0,0.7416704,"adapt"
"pp11","18","i","match",1,0.5932742,"adapt"
"pp11","19","i","match",1,0.7157407,"adapt"
"pp11","20","c","match",1,0.5444873,"adapt"
"pp11","21","filler","match",1,0.8186216,"adapt"
"pp11","22","c","mismatch",1,0.7037154,"adapt"
"pp11","23","c","mismatch",1,0.5713003,"adapt"
"pp11","24","i","match",1,0.4495303,"adapt"
"pp11","25","c","mismatch",1,0.5461746,"adapt"
"pp11","26","i","mismatch",1,0.747772,"adapt"
"pp11","27","c","mismatch",1,0.6018671,"adapt"
"pp11","28","i","mismatch",1,0.7544149,"adapt"
"pp11","29","i","match",1,1.2175999,"adapt"
"pp11","30","c","match",1,0.538583,"adapt"
"pp11","31","i","match",1,0.5334388,"adapt"
"pp11","32","c","mismatch",1,0.651628,"adapt"
"pp11","33","i","mismatch",1,0.6461633,"adapt"
"pp11","34","i","mismatch",1,0.6591448,"adapt"
"pp11","35","i","mismatch",1,0.7027943,"adapt"
"pp11","36","c","mismatch",1,0.4811344,"adapt"
"pp11","37","i","mismatch",1,0.7345576,"adapt"
"pp11","38","i","mismatch",1,0.5163407,"adapt"
"pp11","39","i","mismatch",1,0.5608759,"adapt"
"pp11","40","c","mismatch",1,0.6182596,"adapt"
"pp11","41","c","match",1,0.6213579,"adapt"
"pp11","42","c","match",1,0.5839925,"adapt"
"pp11","43","i","match",1,0.4787675,"adapt"
"pp11","44","c","mismatch",1,0.6128158,"adapt"
"pp11","45","c","mismatch",1,0.5266255,"adapt"
"pp11","46","i","match",1,0.5639479,"adapt"
"pp11","47","c","match",1,0.5623766,"adapt"
"pp11","48","i","match",1,0.4521597,"adapt"
"pp11","49","c","match",1,0.5474902,"adapt"
"pp11","50","i","mismatch",1,0.6222047,"adapt"
"pp11","51","c","mismatch",1,0.5006988,"adapt"
"pp11","52","filler","mismatch",1,0.8238133,"adapt"
"pp11","53","c","match",0,1.7088672,"adapt"
"pp11","54","c","match",1,0.5542406,"adapt"
"pp11","55","i","mismatch",0,0.5450916,"adapt"
"pp11","56","i","mismatch",1,0.704563,"adapt"
"pp11","57","i","match",1,0.6687697,"adapt"
"pp11","58","c","match",1,0.6404691,"adapt"
"pp11","59","i","match",1,0.5038272,"adapt"
"pp11","60","i","match",1,0.5641598,"adapt"
"pp11","61","filler","mismatch",1,0.7997681,"adapt"
"pp11","62","c","match",1,0.5825492,"adapt"
"pp11","63","i","match",1,1.0404531,"adapt"
